time,seconds_elapsed,z,y,x
1667508272884942800,0.01994287109375,0.15040332743525503,0.8379197276502847,-0.09161913003325461
1667508272894990000,0.029989990234375,0.1745779837489128,0.8278682892352343,-0.07098316923975945
1667508272905036800,0.040036865234375,0.21500468668341635,0.733334294668585,-0.02033259393274784
1667508272915083800,0.050083740234375,0.30432313855886456,0.6748343210354447,0.055175943776965136
1667508272925130800,0.060130859375,0.28360183756947516,0.6739109225802123,0.08010930950343609
1667508272935177700,0.070177734375,0.21213819133639333,0.6926382732734083,0.05505377870202064
1667508272945224700,0.080224609375,0.188112003582716,0.6269041106030344,0.041300563159584996
1667508272955272000,0.09027197265625,0.16857260585427283,0.5132042277954518,0.06055705229341984
1667508272965319000,0.10031884765625,0.08954758445620536,0.47066623179540035,0.10986556534171103
1667508272975366000,0.110365966796875,0.06599018325805664,0.5106868381470442,0.10750643499493598
1667508272985412900,0.120412841796875,0.12806465437710285,0.5037707751482725,0.05330547372996807
1667508272995459800,0.1304599609375,0.2192465620368719,0.4542173474282026,-0.044487376502156256
1667508273005506800,0.1405068359375,0.25245325058996676,0.4468669846653938,-0.11829670907855033
1667508273015554000,0.150553955078125,0.19207623103857038,0.5257952676907182,-0.16445932531654833
1667508273025601000,0.16060107421875,0.10711480532884597,0.6055434887968003,-0.14032383196949957
1667508273035647700,0.170647705078125,0.09430909976959229,0.6298416253596544,-0.12835282366871834
1667508273045695700,0.18069580078125,0.08588730838298797,0.5903041263498365,-0.0823696556508541
1667508273055742700,0.19074267578125,0.05042670342326164,0.5312514872699976,-0.11230652875304221
1667508273065790000,0.2007900390625,0.03603752806484699,0.5363724835455417,-0.1375736564785242
1667508273075837000,0.2108369140625,0.07660276268720627,0.4987549928128719,-0.10641454810500145
1667508273085884000,0.2208837890625,0.1450070213496685,0.40893399824276566,-0.03673077102601528
1667508273095931000,0.230930908203125,0.1631231082767248,0.39841260422840713,-0.07750467996299266
1667508273105977900,0.240977783203125,0.23157997390925883,0.4117239212222397,-0.15440730237960815
1667508273116025000,0.251025146484375,0.2520885089308023,0.38302228900343177,-0.19186112698316574
1667508273126071800,0.26107177734375,0.208645673045516,0.3506771857157349,-0.204811209449172
1667508273136118800,0.271118896484375,0.1727344017088413,0.36511589930430055,-0.17230302455425262
1667508273146165800,0.281165771484375,0.11684008052945136,0.42077582720592616,-0.11498363900780677
1667508273156212700,0.291212646484375,0.17385726825892925,0.39875630309954285,-0.06468319231271744
1667508273166259700,0.301259765625,0.322355054333806,0.30166195652559397,-0.04334112907648086
1667508273176307000,0.311306884765625,0.47709261158108707,0.22507161492854355,-0.05144494055509567
1667508273186354000,0.32135400390625,0.5502332511156797,0.18496639903336762,-0.09642097735702991
1667508273196401000,0.33140087890625,0.547287845313549,0.08686185250356793,-0.17449264355301855
1667508273206447900,0.34144775390625,0.5925368538379668,-0.06830225959271193,-0.20188158573806284
1667508273216494800,0.351494873046875,0.6568295855283737,-0.10928294314816593,-0.2176566624969244
1667508273226541800,0.361541748046875,0.6487234359622002,-0.1420158767096698,-0.2047808143109083
1667508273236589000,0.371589111328125,0.657698185056448,-0.2315676989495754,-0.1756622718542814
1667508273246636000,0.381635986328125,0.6965168682724237,-0.3421758993521333,-0.16195172640979288
1667508273256682800,0.391682861328125,0.6892834098875522,-0.39926337583884597,-0.2215817269861698
1667508273266729700,0.401729736328125,0.6040852528125047,-0.4128310056813061,-0.30301614761352536
1667508273276776700,0.411776611328125,0.4638987834870815,-0.4350844846740365,-0.2517886492013931
1667508273286823700,0.42182373046875,0.34505730000734325,-0.408862394311279,0.014696633872389793
1667508273296871000,0.431870849609375,0.6268009424895048,-0.4658613157317042,-0.09115560417473316
1667508273306918000,0.44191796875,0.47013913918137545,-0.4388230866804719,-0.14742694197297096
1667508273316965400,0.45196533203125,0.407891649582982,-0.26793840449154377,-0.0798772543132305
1667508273327012400,0.462012451171875,0.49058922201395033,-0.3703448859989643,-0.15415128179192542
1667508273337059600,0.4720595703125,0.5638029267847537,-0.376788947571814,-0.18454583553373813
1667508273347106600,0.4821064453125,0.8853361433416604,-0.3415449079722166,-0.2258510748684406
1667508273357153500,0.492153564453125,0.80281042034626,-0.21923808646947143,-0.24938275710344313
1667508273367200300,0.5022001953125,0.7426233704090118,-0.0712752840541303,-0.005339022940397262
1667508273377247200,0.512247314453125,0.7139058099687099,0.2769425258107483,0.37404666312634943
1667508273387294200,0.522294189453125,0.9290151260703802,0.11050284033194184,0.27776363293528555
1667508273397341400,0.532341552734375,1.1586416278243064,-0.17427768562808632,-0.016142156505584714
1667508273407388400,0.542388427734375,1.140699143898487,-0.10592734910994768,-0.13813479749262333
1667508273417435400,0.552435302734375,1.1913362752020358,-0.08985007453411817,-0.07451192788779736
1667508273427482400,0.562482421875,1.3198586102187633,-0.057455140755325554,0.029971944415569305
1667508273437529300,0.572529296875,1.1784873150229453,0.035930706689506764,0.12871756532788275
1667508273447576300,0.582576416015625,0.8996253654569387,0.3008838117599487,0.21639117260575294
1667508273457623600,0.59262353515625,1.0388988115906714,0.360593307313323,0.25057635080218316
1667508273467670500,0.60267041015625,1.0835299804776906,0.4127830748863518,0.17847499118745325
1667508273477717500,0.612717529296875,0.8600947345793247,0.6460813970208168,0.1509194602638483
1667508273487764500,0.622764404296875,0.9417980352759361,0.7818696313872933,0.15437573819756506
1667508273497811200,0.632811279296875,1.3271844230622052,0.6228210790731012,0.0863560949385166
1667508273507858400,0.6428583984375,1.4472107324123382,0.5646266642577946,-0.04519698607623577
1667508273517905400,0.652905517578125,1.3164812427401542,0.6596607173010707,-0.08691665143072605
1667508273527952400,0.662952392578125,1.346698686349392,0.5577633543595671,-0.03409223921597004
1667508273537999400,0.672999267578125,1.5500854159533977,0.18259221724793315,-0.0019271686702966688
1667508273548046300,0.68304638671875,1.658728746023774,-0.22178879386559128,0.008273907348513602
1667508273558094600,0.693094482421875,1.4116203635931015,-0.3021840807035565,-0.04433481628894806
1667508273568141600,0.7031416015625,1.0501946971088647,-0.18350231783017515,-0.08205752096176147
1667508273578188500,0.7131884765625,0.9049369158685207,-0.017321721678972245,-0.12188918061256408
1667508273588235300,0.7232353515625,0.8607511526614428,0.026392624624073505,-0.11357611029744148
1667508273598282200,0.7332822265625,0.6674936028838158,0.010702303539216518,-0.093811671641469
1667508273608329200,0.7433291015625,0.5240040003597736,0.010037994411587715,-0.04030746046900749
1667508273618376400,0.75337646484375,0.3638894262492656,0.008134645008295773,0.059086979740858074
1667508273628423400,0.76342333984375,0.06028291152715683,0.0034792204178869723,0.13610183036029339
1667508273638470400,0.773470458984375,-0.541741317102313,-0.0036914018638432022,0.15542729307711123
1667508273648517400,0.783517333984375,-1.2032014850407837,0.03142930361703038,-0.03607493746578693
1667508273658564400,0.793564453125,-1.6808534840703009,0.07315905197411775,-0.455667546236515
1667508273668611300,0.803611328125,-2.1398595270797607,0.13594970853850244,-0.9055547555059194
1667508273678658600,0.813658447265625,-2.429358313733339,0.2542290280908346,-1.322740303134918
1667508273688705500,0.82370556640625,-2.461439213126898,0.26343817046284673,-1.605761125946045
1667508273698752500,0.83375244140625,-2.346593521285057,0.054559565444290636,-1.5468366432905196
1667508273708799500,0.843799560546875,-2.476221187195182,-0.24094284553825854,-1.2607798137843609
1667508273718846200,0.85384619140625,-3.0311990024894473,-0.4114344367563724,-0.8043120570808648
1667508273728893400,0.8638935546875,-3.3692166131183505,-0.5337799828343093,-0.037388942673802376
1667508273738940400,0.8739404296875,-3.585182546049356,-0.376074661822617,0.32217034541666506
1667508273748987400,0.8839873046875,-3.786927938187122,-0.3392404304221272,0.28122984774112697
1667508273759034400,0.894034423828125,-4.1046407196730375,-0.6401330100104212,0.4886252284646034
1667508273769081300,0.904081298828125,-4.438877350458503,-0.8401634149238467,0.781868170082569
1667508273779128300,0.91412841796875,-4.730741697199642,-0.8770582904703914,1.0591092404484748
1667508273789175600,0.924175537109375,-4.65947474258244,-0.9621893736585974,1.6752537643671035
1667508273799222500,0.934222412109375,-4.700791672354936,-0.8604065770074725,1.7447995942801235
1667508273809269500,0.94426953125,-4.76163923202753,-0.5603156691908836,1.4388245968610047
1667508273819316500,0.95431640625,-4.435325210934877,-0.2378352349117398,1.0917179631084204
1667508273829363500,0.964363525390625,-4.168694381910562,-0.2370603050164878,0.663473845848441
1667508273839410400,0.974410400390625,-2.7388123854398727,-0.7242772741183638,0.5689145707100629
1667508273849457400,0.98445751953125,-0.31827688164208084,-1.5446455629870295,0.10311784464716911
1667508273859504400,0.99450439453125,-0.6229682324588298,-1.2395236752659082,-0.37778234252333637
1667508273869551400,1.00455126953125,0.6424141066849232,-0.3490513380795717,-1.2736375417917967
1667508273879598300,1.014598388671875,2.7038006932914254,-0.6377063673853873,-2.6328128478765485
1667508273889645300,1.024645263671875,4.6154994072556494,-2.051465496572852,-2.693879603257775
1667508273899692300,1.0346923828125,3.9279344917237755,-2.4523937368839976,-2.356278464475274
1667508273909739500,1.044739501953125,1.5034300477623939,-1.8305735054165124,-1.1210311513543127
1667508273919787500,1.05478759765625,0.6526349833827465,-1.6783071605883537,0.34770693773329253
1667508273929834200,1.064834228515625,0.0963946008067578,-1.8890705564402042,0.6723679309219122
1667508273939881200,1.074881103515625,-0.3213536952715367,-2.1462601879023016,0.9873463190078735
1667508273949928200,1.08492822265625,-0.30270386679396033,-1.839672611542791,0.9418097257137298
1667508273959975400,1.094975341796875,0.17012626503705977,-1.310795306058228,0.4975169754505157
1667508273970022400,1.1050224609375,0.8316109828948974,-1.1387219986066222,0.28586393728256226
1667508273980069400,1.1150693359375,1.7145532168373465,-1.3453721139207482,0.39211365021467204
1667508273990116400,1.125116455078125,2.2980162451207637,-1.481432150965929,0.46528994558453557
1667508274000163300,1.135163330078125,2.090921308648586,-1.3620783340498803,0.26746377271711824
1667508274010210600,1.14521044921875,0.5316342029772698,-1.396856948094815,-0.14901859507858753
1667508274020257500,1.155257568359375,-0.5931601003028452,-1.802196428976953,-0.5485533352047205
1667508274030304500,1.165304443359375,-0.24115502698421476,-2.4154092833578584,-1.0323784699112177
1667508274040351500,1.1753515625,0.492519167163223,-3.1258769355714318,-1.3619628909766672
1667508274050398500,1.1853984375,1.1619301479756832,-3.626826808080077,-1.359841076517105
1667508274060445200,1.195445068359375,1.4689689752340316,-3.617339141027629,-1.2606979807198047
1667508274070492400,1.205492431640625,2.2104119036868215,-3.1709581863135097,-0.9964262820422649
1667508274080539400,1.215539306640625,3.35909035590142,-2.6552503051340577,-0.8010305511921644
1667508274090586400,1.22558642578125,3.6299700745418666,-2.957168428377807,-0.538885927671194
1667508274100633300,1.23563330078125,2.931097290793061,-3.539177166199684,-0.541857052436471
1667508274110680300,1.245680419921875,1.9562486343085765,-3.63953109909147,-1.3223270461589096
1667508274120727300,1.255727294921875,1.7533552411794662,-3.8306107203081248,-2.606716868111491
1667508274130774500,1.2657744140625,2.2793106678679584,-4.0258004071921105,-3.6427865937560795
1667508274140821500,1.275821533203125,3.059779492546618,-3.8624148485869165,-4.241555035459995
1667508274150868500,1.285868408203125,3.749368899643421,-3.6695007054194804,-4.479966316694021
1667508274160915500,1.29591552734375,3.8246903903484344,-3.52376098588109,-4.590758349230885
1667508274170962400,1.30596240234375,3.5542636761724946,-3.2359336395710705,-4.812850363826751
1667508274181009400,1.316009521484375,3.563797228193283,-3.1161998834267255,-5.087733472889662
1667508274191056400,1.326056396484375,3.0551304976969957,-2.307924183411896,-5.454241557204723
1667508274201103400,1.336103271484375,3.3727129308015105,-1.254833764861524,-6.74615534492135
1667508274211151400,1.3461513671875,4.506151143786311,-1.608153866301477,-7.754176787689328
1667508274221198300,1.3561982421875,5.171938527274132,-2.5939281136870385,-7.504494755378365
1667508274231245600,1.36624560546875,5.1971770134270185,-2.6695254987239836,-6.902441300654411
1667508274241292500,1.37629248046875,4.659758235698938,-1.7160288423478602,-6.871607186451554
1667508274251339500,1.386339599609375,4.278095836871862,-0.7427122177362442,-7.327690912273526
1667508274261386500,1.396386474609375,4.0378921192631125,-0.6278156724900007,-8.015419493934512
1667508274271433500,1.40643359375,4.355835202373564,-0.9918658422589302,-8.976348346138
1667508274281480200,1.416480224609375,4.611284127648174,-1.0344728118419646,-9.895185192543268
1667508274291527400,1.42652734375,4.495397402320802,-0.6883294701635837,-10.396121621048449
1667508274301574400,1.436574462890625,4.3258276021227235,-0.34500118590593337,-10.55904657640457
1667508274311620900,1.446620849609375,3.9889167836919426,-0.15173194569051265,-10.688187335580587
1667508274321667800,1.456667724609375,3.842684312200546,-0.16453823577165602,-10.9504541241765
1667508274331714800,1.46671484375,3.819472363439202,-0.29745675992071624,-11.318395456165074
1667508274341762000,1.476761962890625,3.5773958376958963,-0.2736398310035467,-11.349617108380794
1667508274351809000,1.48680908203125,3.6110534848868845,0.07740472671985625,-11.285409716886281
1667508274361856000,1.49685595703125,3.6317923215329646,0.6964911493092775,-11.078113704884052
1667508274371903000,1.506903076171875,3.247197376385331,1.4637790053755044,-10.608007298928499
1667508274381950000,1.516949951171875,2.9508930013701318,2.137088016539812,-10.246963325238227
1667508274391997200,1.5269970703125,2.322695051564276,2.798983653286099,-10.063837293374538
1667508274402044200,1.537044189453125,1.6927520116567611,3.4567093108713625,-9.887247385281324
1667508274412091100,1.547091064453125,1.5376970590233803,3.9446746141225097,-9.680660398331284
1667508274422137900,1.557137939453125,1.2807926742434501,4.283754593285918,-9.306905996149778
1667508274432184800,1.567184814453125,0.857354495960474,4.590460827589035,-8.718769423097372
1667508274442231800,1.577231689453125,0.7829194327011704,4.863970894733071,-8.12719352324605
1667508274452279000,1.587279052734375,0.554730124143511,5.207522466352581,-7.499950097686052
1667508274462326000,1.597325927734375,0.12077025958523153,5.560349231317639,-6.801372789752483
1667508274472373000,1.607373046875,-0.2759635247107595,5.573334385097026,-6.084447924223542
1667508274482421000,1.6174208984375,-0.6012766981977969,5.247170586130022,-5.2564995554894205
1667508274492468000,1.627468017578125,-0.7610252154748887,4.962120303317904,-4.374662360179424
1667508274502515200,1.63751513671875,-1.2858055339694023,4.952920513296127,-3.392764954227209
1667508274512562000,1.64756201171875,-1.8299451443850994,5.095380188250541,-2.428847441601753
1667508274522609000,1.65760888671875,-2.2105179944097992,5.177448230606317,-1.6012041932940482
1667508274532655900,1.66765576171875,-2.5057038867890835,5.221862541872262,-0.9222177210152148
1667508274542702800,1.677702880859375,-2.758186947995424,5.30562511318624,-0.21230770268440247
1667508274552749800,1.687749755859375,-2.8966788883626458,5.257006920489668,0.554514873957634
1667508274562797000,1.697797119140625,-3.047679597169161,4.896936175745726,1.2363818701088427
1667508274572844000,1.707843994140625,-3.2662107044130564,4.344626702877878,1.9540069928616284
1667508274582891000,1.71789111328125,-3.4759079323381186,3.813551741218567,2.8025696950793266
1667508274592938000,1.72793798828125,-3.726660808750987,3.435547864899039,3.60013286242187
1667508274602985000,1.73798486328125,-3.8297359833002087,3.090111210185289,4.40501307477951
1667508274613032000,1.748031982421875,-3.7135423839807506,2.8433336671441793,5.069896202903986
1667508274623079200,1.7580791015625,-3.4538276179552074,2.6405793902248145,5.510352151483297
1667508274633126100,1.768126220703125,-3.2817864592075345,2.451598787114024,5.7641632464230055
1667508274643172900,1.7781728515625,-3.04935951308012,2.1454478486061097,5.813285881510376
1667508274653219800,1.7882197265625,-2.779877386277914,1.6884148592352866,5.699373086604476
1667508274663266800,1.798266845703125,-2.4600574033796785,1.210696809232235,5.559258513471484
1667508274673314000,1.80831396484375,-2.2288766579210755,0.8027543062448501,5.436078124004602
1667508274683361000,1.818361083984375,-2.119428441208601,0.36178865457773207,5.470583035674691
1667508274693408000,1.828407958984375,-1.8636100980997083,-0.10515548795461654,5.654347365441918
1667508274703455000,1.838455078125,-1.555101782810688,-0.3404886769175529,5.905339895829558
1667508274713502000,1.848501953125,-1.14834001404047,-0.4590466672807932,6.201238904914259
1667508274723550200,1.85855029296875,-0.6858230403006076,-0.6822749924302101,6.512396273407339
1667508274733597000,1.868596923828125,-0.5783224870571866,-1.025837085443735,6.77329177365005
1667508274743644000,1.878643798828125,-0.6336848567843437,-1.462949568814039,6.834924346220493
1667508274753691000,1.88869091796875,-0.3319430034229532,-2.2231705552339553,7.012485145172477
1667508274763737900,1.89873779296875,-0.23703060399796813,-3.415480643904209,7.600916317257284
1667508274773784800,1.908784912109375,-0.41629528425838797,-5.315668952816725,9.544356907919049
1667508274783832000,1.91883203125,-0.11234276911020279,-8.084601166710257,13.337491884052753
1667508274793879000,1.928879150390625,0.731643711233139,-11.169617099583148,17.479799778819082
1667508274803926000,1.938926025390625,1.8188661164879798,-13.81732473425269,21.73644015520811
1667508274813973000,1.948972900390625,0.2071206554353237,-14.319724805569647,25.063859069299696
1667508274824020000,1.95902001953125,-4.353730631309747,-11.318690055197477,24.263496626627443
1667508274834067000,1.96906689453125,-8.10507404589653,-6.379245109546184,17.836651561516522
1667508274844114200,1.9791142578125,-3.295134016558528,-5.494516284447908,9.83359996624589
1667508274854161200,1.9891611328125,4.400355019840598,-5.778500399333239,3.7278029645234345
1667508274864208000,1.999207763671875,5.808291726484894,-0.7446218507498502,0.3544931638073176
1667508274874254800,2.0092548828125,6.2022226552546025,6.720625182345509,-5.530912708953022
1667508274884301800,2.0193017578125,9.296586262187361,16.592335391277075,-13.415188871717453
1667508274894349000,2.02934912109375,18.28120033236742,30.783543707048892,-22.344268101680278
1667508274904396000,2.03939599609375,26.846007858765123,47.17036003286838,-32.14391085326671
1667508274914443000,2.049443115234375,16.853602647441626,54.51858578364849,-33.43341056557894
1667508274924490000,2.059489990234375,3.854225112390518,52.578356556248664,-15.963977866995334
1667508274934538000,2.0695380859375,15.735613348001241,43.24874656085968,22.98037755526304
1667508274944585000,2.0795849609375,20.724328812777994,26.388951488518714,42.87152419030666
1667508274954632000,2.0896318359375,7.163294130799174,16.113524285340308,24.89531101336479
1667508274964679000,2.099678955078125,-15.19319690811634,12.874661606580018,14.714559989702702
1667508274974726000,2.109725830078125,-11.607283709704875,5.956905832415819,16.42210391229987
1667508274984772900,2.11977294921875,-4.283646456736326,1.8394436250925064,13.165181845235823
1667508274994819800,2.12981982421875,-0.9263450300782918,1.603481490576267,8.674820391255617
1667508275004867000,2.1398671875,-3.4033377861678598,-2.715338570871949,3.7237349844321606
1667508275014914000,2.1499140625,-3.2284996901780363,-4.525904476526379,-5.420338118559122
1667508275024961000,2.1599609375,2.3728050902538,-2.899435493594408,-9.440651034250855
1667508275035008000,2.170008056640625,-3.1123382395625114,-0.15395780504643916,-4.529571766862273
1667508275045055000,2.180054931640625,-5.9258525225043295,-0.6978209366083145,3.156160430154204
1667508275055102000,2.19010205078125,-3.930733182531595,-3.075461922585964,6.573532586893439
1667508275065149200,2.200149169921875,0.05589490570127964,-3.913343656313419,6.505503591284156
1667508275075196000,2.21019580078125,3.2754011420845983,-3.1547078932583332,5.796600704169273
1667508275085243000,2.220242919921875,1.908313163179159,-0.8832873941183089,3.9702036076545713
1667508275095289900,2.230289794921875,-0.7970025377850979,0.7965648039549589,0.9542012975141405
1667508275105336800,2.2403369140625,-2.800002474939823,0.46698915071785446,-1.5991668422475456
1667508275115384000,2.250384033203125,-3.2708950628370044,-1.2886901494950056,-2.2079931521072984
1667508275125432000,2.26043212890625,-3.4937405261486765,-2.9202140777289864,-0.9212471224173903
1667508275135479000,2.27047900390625,-4.6348044117063285,-2.4641122317284343,0.975496891260147
1667508275145526000,2.280526123046875,-5.345765984916687,-0.5710755481362343,2.6472087452366946
1667508275155573000,2.290572998046875,-4.9106654258906834,0.8527361885100603,3.459292020840943
1667508275165620000,2.300619873046875,-3.794101190817356,1.3144722410053014,3.6469136105582116
1667508275175667000,2.3106669921875,-2.415758827447891,1.0840373454779386,3.571606148378551
1667508275185714000,2.3207138671875,-1.3684452387332915,0.8595417768716812,2.8531410676702857
1667508275195761000,2.330760986328125,-0.9616337856024503,1.406414027121663,1.668558942903578
1667508275205807900,2.340807861328125,-1.075235614863038,2.8322306738495824,0.7698232197627425
1667508275215854800,2.350854736328125,-1.3267442780792713,4.51609210756421,0.5131403687790036
1667508275225902000,2.360902099609375,-1.4571452664494513,5.962222643524408,0.7469079158604145
1667508275235949000,2.370948974609375,-1.6749778700351714,7.181510170969367,1.1102277255281805
1667508275245996000,2.38099609375,-1.8010989891290663,8.266612515330314,1.498635653092712
1667508275256043000,2.39104296875,-1.838161184066534,9.206294581365585,1.8017212126806377
1667508275266090000,2.401090087890625,-1.8095768946170805,9.918377852082251,1.871602558158338
1667508275276137000,2.411136962890625,-1.8052103699706494,10.483783537888526,1.719898523388058
1667508275286184200,2.42118408203125,-1.8032256258942185,10.934220782256126,1.4073697204113005
1667508275296231000,2.43123095703125,-1.738125084952265,11.387027678364515,1.0693519636519253
1667508275306279000,2.44127880859375,-1.4854690052665769,11.841050380003452,0.6476617980800569
1667508275316325000,2.4513251953125,-1.167070433473587,12.117837861382961,0.2674503287136555
1667508275326372000,2.4613720703125,-0.7647979389466345,12.048410689413547,0.0573501460108906
1667508275336419300,2.47141943359375,-0.8096341288864612,11.612305921781063,-0.10479308438301085
1667508275346466300,2.48146630859375,-0.9648609309554099,10.927305888301133,-0.3003159487441182
1667508275356513300,2.49151318359375,-1.0343243432819842,10.165098696500062,-0.4637029686540365
1667508275366560300,2.501560302734375,-1.2064978962376713,9.468817975071072,-0.5517456284400075
1667508275376607200,2.511607177734375,-1.2088827455475926,8.895699522930384,-0.6436638875503092
1667508275386654200,2.521654296875,-1.0748229424089193,8.411151334646343,-0.7944478118009864
1667508275396701400,2.531701416015625,-1.0414254074588418,7.984104318216443,-0.9466800351638346
1667508275406748400,2.54174853515625,-0.9031155456602573,7.544383698174357,-1.0699896770335733
1667508275416795100,2.551795166015625,-0.7712848167479037,7.070571423438191,-0.9873103709116577
1667508275426842000,2.561842041015625,-0.6372469331800937,6.374761826652288,-0.7669140543177724
1667508275436889000,2.57188916015625,-0.5891425352245568,5.5408069109797475,-0.5840802833989263
1667508275446936000,2.58193603515625,-0.5973924771755933,4.850062780889869,-0.4386316557615995
1667508275456983300,2.5919833984375,-0.4843991352021694,4.461707021903991,-0.38399668699353934
1667508275467030300,2.6020302734375,-0.16369710877239704,4.130228749915958,-0.343185368655622
1667508275477077200,2.6120771484375,0.19861644646227358,3.7662002074569463,-0.2072738001704216
1667508275487125200,2.622125244140625,0.6332026262253523,3.3446097028672694,0.07471621828824282
1667508275497172200,2.632172119140625,0.935477600082755,2.916647909680009,0.3726408879816532
1667508275507219200,2.64221923828125,1.237756081071496,2.4679133775770663,0.531634933629632
1667508275517266200,2.65226611328125,1.646288951167464,2.0390245326727627,0.501850620740652
1667508275527313200,2.662313232421875,1.9069635021358726,1.7525544461905955,0.16546470296680926
1667508275537360100,2.672360107421875,1.9173042788863182,1.8409160357326269,-0.39513329029679295
1667508275547407000,2.682406982421875,1.939268857935071,2.409078326770663,-0.9994126043766737
1667508275557454300,2.692454345703125,2.068815275302529,3.1920334153071046,-1.8100363288223742
1667508275567501300,2.702501220703125,2.04333771969676,4.087993536254763,-2.961642066660523
1667508275577548300,2.71254833984375,2.1483967615395785,4.787986556205153,-3.9394039802432057
1667508275587595300,2.72259521484375,3.0475176846057175,4.864376552924513,-4.4339585987567895
1667508275597642200,2.732642333984375,4.002369262722135,4.79095768097043,-4.838782677462697
1667508275607689200,2.742689208984375,4.12891825183928,5.091415960794687,-5.146350497031212
1667508275617736400,2.752736328125,4.038809526368976,5.801208490225672,-5.508244950070977
1667508275627783400,2.762783447265625,4.092469804885983,6.580378507265448,-6.075342826747894
1667508275637830100,2.772830078125,4.2041053025096655,7.347524909034371,-6.879077960723638
1667508275647878100,2.782878173828125,4.87762415703237,7.9694158676505085,-7.6985443323165175
1667508275657925000,2.792925048828125,6.142547646492719,8.220989412796497,-8.225106200465559
1667508275667972400,2.802972412109375,7.448601018720865,8.113253845220804,-8.421125616171956
1667508275678019300,2.813019287109375,8.079706380406021,7.891199240025878,-8.483300040534138
1667508275688066300,2.82306640625,8.281083523753285,7.422800807031988,-8.329215978759526
1667508275698113300,2.83311328125,8.291828205129503,7.039082644718885,-8.213372508051991
1667508275708160300,2.84316015625,8.369970013952255,7.117984331998229,-8.434193772059679
1667508275718207200,2.853207275390625,8.322377072650193,7.417566413509845,-8.853114180657267
1667508275728254200,2.863254150390625,7.886138449504971,7.824584787389636,-9.219102040490508
1667508275738301200,2.87330126953125,7.484980492091179,8.344189091485738,-9.481623096108436
1667508275748348200,2.88334814453125,7.1961705644845955,8.878327532368898,-9.6971351477921
1667508275758395100,2.89339501953125,6.973978012123704,8.840826946014165,-9.76933119995296
1667508275768442000,2.903442138671875,6.527524868956208,7.971696672064065,-9.748547355121374
1667508275778489300,2.9134892578125,5.4430690058052535,6.747340755313634,-9.62467722982466
1667508275788536300,2.923536376953125,4.18397144601941,5.527985423329472,-9.243839591383933
1667508275798583300,2.933583251953125,3.2720155912995335,4.454918969199061,-8.56052824164331
1667508275808630300,2.94363037109375,2.7342022612959145,3.5059862597376106,-7.837322688409686
1667508275818678000,2.953677978515625,2.352291440665722,2.773753934961557,-7.2557374366968865
1667508275828725200,2.963725341796875,1.946974610006809,2.214187622833252,-6.713765817970037
1667508275838772200,2.973772216796875,1.4184066627323626,1.8259762407541273,-6.17995880099833
1667508275848819200,2.983819091796875,0.8865385048687457,1.7853303421109914,-5.7212283600598575
1667508275858866200,2.9938662109375,0.5237041406303644,2.2310206842124463,-5.503630734273791
1667508275868913200,3.0039130859375,0.45021103439629073,3.1836972563773394,-5.696973624247312
1667508275878960000,3.013960205078125,0.617337533095479,4.449928905826806,-6.354473656383156
1667508275889007400,3.02400732421875,0.8624632172763347,5.551252317148447,-7.360422969052195
1667508275899054300,3.034054443359375,1.000937621986866,6.113122814565896,-8.529957162290811
1667508275909101300,3.044101318359375,0.9982213487654924,5.9179421877712,-9.64110872466564
1667508275919148300,3.054148193359375,0.8340887711852788,4.937969027879834,-10.51977255063653
1667508275929195300,3.0641953125,0.7205202596724033,3.510701597821712,-11.25577913325429
1667508275939242200,3.0742421875,0.8027408622413873,1.9839777682334183,-11.75975624462962
1667508275949289200,3.084289306640625,1.0027455481916665,0.548716416811943,-11.732352689397334
1667508275959336200,3.094336181640625,1.1855854565903543,-0.6193944656252861,-11.144239497220516
1667508275969383200,3.104383056640625,1.2694494424521923,-1.4066554346621036,-10.197706834638119
1667508275979431200,3.11443115234375,1.1450883187681435,-1.8024638477414845,-8.977530833920836
1667508275989478400,3.124478515625,0.8121464039683342,-1.805159662696719,-7.817044455012678
1667508275999525400,3.134525390625,0.42178105872571464,-1.5937398487627505,-6.870287920546532
1667508276009572400,3.144572265625,0.012127075645327567,-1.273012103369832,-6.175303668668866
1667508276019619300,3.154619384765625,-0.34897067405879495,-0.903938552480936,-5.7488464348256585
1667508276029666300,3.164666259765625,-0.6140285546779632,-0.5116162279516459,-5.55296204367578
1667508276039713000,3.174713134765625,-0.7332283500760793,-0.09607844752967357,-5.516509505069256
1667508276049760300,3.18476025390625,-0.6820090349704027,0.29333529607653613,-5.551572050622105
1667508276059807200,3.19480712890625,-0.5969692833274602,0.6303706176698207,-5.591159380123019
1667508276069854200,3.204854248046875,-0.6047732350766658,0.9185440009385347,-5.57364535074234
1667508276079901200,3.214901123046875,-0.6566530599176883,1.0989636964529752,-5.401333558359742
1667508276089948200,3.2249482421875,-0.6898717311695217,1.1749901205569504,-5.051645091420411
1667508276099995100,3.2349951171875,-0.6831856775343418,1.2041004797071218,-4.551427332578599
1667508276110042400,3.24504248046875,-0.5906085161238909,1.1643033068478106,-3.9561359193354844
1667508276120089300,3.25508935546875,-0.5075660757780075,1.0566279450267553,-3.266449189344048
1667508276130137000,3.26513720703125,-0.48855859296917914,0.9159335261791944,-2.5439889015197754
1667508276140184000,3.27518408203125,-0.49967210765779013,0.7426029121428728,-1.8118150289326904
1667508276150231000,3.28523095703125,-0.5277154220983385,0.5855751981317997,-1.1675579247295855
1667508276160278300,3.2952783203125,-0.7387266552314162,0.5201952557265758,-0.6447882884703576
1667508276170325200,3.3053251953125,-1.0768319441437721,0.5564367819309234,-0.23595526638403533
1667508276180372200,3.315372314453125,-1.4915975711494682,0.705145580407977,0.15209434926211832
1667508276190419200,3.325419189453125,-1.3621981610372662,0.7532640068888664,0.4655304763421416
1667508276200466200,3.335466064453125,-1.3856483024686574,0.8172469419777393,0.5993310440227388
1667508276210513200,3.34551318359375,-1.4828873182103037,0.9774322432368994,0.6962658161208033
1667508276220560400,3.355560302734375,-1.564794324785471,1.1909510752767323,0.8427870414257049
1667508276230607400,3.365607421875,-1.8531115004390477,1.4145523253917693,1.0472273717358709
1667508276240654300,3.375654296875,-2.2212419252589344,1.7149451387643813,1.2275833543643355
1667508276250701300,3.385701416015625,-2.3026339680492875,2.0553046363443137,1.3111802137225865
1667508276260748000,3.395748046875,-2.6024039733484385,2.5095681610018015,1.4076140505611896
1667508276270796300,3.40579638671875,-2.910325428660214,2.9579718537151813,1.7748332057550549
1667508276280843300,3.41584326171875,-2.899334371307492,3.2121307391792535,2.336322302639484
1667508276290890200,3.42589013671875,-2.8768264791622755,3.230147457385063,2.8752272272720933
1667508276300937200,3.435937255859375,-2.815553095293045,3.0078152042925357,3.187632842260599
1667508276310984700,3.445984619140625,-2.8319793294370172,2.6300755318671465,3.2496821789383885
1667508276321031700,3.45603173828125,-2.944452739189565,2.149454161638021,3.148599639511108
1667508276331078700,3.46607861328125,-3.0829978710487485,1.6524340297937392,3.024152006587386
1667508276341125600,3.476125732421875,-3.057952569380402,1.16450964307487,2.923777323168516
1667508276351172600,3.486172607421875,-3.089227413088083,0.7747872719109058,2.7917653924703596
1667508276361219600,3.496219482421875,-3.2300615326672792,0.5831102693229914,2.6311849544137713
1667508276371266600,3.5062666015625,-3.3164678964883088,0.6186895322263241,2.449167176052928
1667508276381313500,3.5163134765625,-3.3766397488564253,0.9134247582286595,2.2196341978013514
1667508276391360500,3.526360595703125,-3.5258734479904175,1.6247890670210121,1.8827508518993854
1667508276401407700,3.53640771484375,-3.5908743279501794,2.70614228798151,1.300996673360467
1667508276411455700,3.546455810546875,-3.687167295013368,3.7336288941979405,0.5371592500090598
1667508276421502500,3.55650244140625,-3.6442946602314708,4.167576191535592,-0.29025311215221883
1667508276431549400,3.566549560546875,-3.3541064300090073,3.887379778495431,-1.0508107831805944
1667508276441596400,3.576596435546875,-3.034806671592593,3.176315913954377,-1.4663158303767443
1667508276451643600,3.5866435546875,-2.906699347117543,2.4918296752154827,-1.4078741628021
1667508276461690600,3.596690673828125,-2.987642769357562,2.0755326008588075,-0.9451818324953317
1667508276471737600,3.606737548828125,-3.083658673045039,1.7803432013481855,-0.21551088263988494
1667508276481784600,3.61678466796875,-3.0773627877712246,1.3912041830301285,0.5714613325834274
1667508276491831600,3.62683154296875,-3.106277332088351,0.7963087833672762,1.3504215062648057
1667508276501878500,3.63687841796875,-3.2681106928154824,0.05718085385859012,2.1442612691700456
1667508276511925800,3.64692578125,-3.5779657465383408,-0.6966589070916176,2.889884405916929
1667508276521972700,3.65697265625,-3.8299344284817574,-1.3659569290488958,3.4542215857088565
1667508276532019700,3.667019775390625,-3.938130014784634,-1.9073077855288982,3.6515415626198053
1667508276542066700,3.677066650390625,-3.8329166591629384,-2.31277483831346,3.4583623387753963
1667508276552114700,3.68711474609375,-3.488661323188245,-2.550391754299402,2.985447889661789
1667508276562161700,3.69716162109375,-3.0570661419346927,-2.566240480816364,2.384924713245034
1667508276572208600,3.707208740234375,-2.6830118800237774,-2.3243448645979163,1.7960989888846872
1667508276582255600,3.717255615234375,-2.4135858673229813,-1.916304746454954,1.2217495336443185
1667508276592302600,3.727302490234375,-2.272655886153877,-1.4776450336426497,0.6481096879780293
1667508276602349600,3.737349609375,-2.0164999816536904,-1.1548831520736216,0.05791910500526428
1667508276612396800,3.747396728515625,-1.6536457436710594,-1.0841934128224848,-0.5908031619131565
1667508276622443800,3.75744384765625,-1.414754277704656,-1.101785768136382,-1.396437992030382
1667508276632490800,3.76749072265625,-1.4231892208337782,-1.0106377627462149,-2.1868431043118237
1667508276642537500,3.777537353515625,-1.4497373282805084,-0.7733423337996006,-2.726006679880619
1667508276652584400,3.78758447265625,-1.4116376069888472,-0.29635727424621583,-3.1165415364712477
1667508276662631400,3.79763134765625,-1.3562220092371104,0.6178899062812327,-3.6839024479985234
1667508276672678700,3.8076787109375,-1.283926003833115,1.9489321738153695,-4.678538339492678
1667508276682725600,3.8177255859375,-0.9997440282881259,3.372323639222979,-6.106385615265369
1667508276692773600,3.827773681640625,-0.5083338452801108,4.733748770061135,-7.483496975535154
1667508276702820600,3.837820556640625,-0.11405395694226025,5.621131909060478,-8.199549149882793
1667508276712867600,3.84786767578125,-0.11025719500780105,5.402731734719872,-8.410136604645848
1667508276722914800,3.857914794921875,-0.1833621787071228,4.839136897727847,-8.51192407747209
1667508276732961500,3.86796142578125,-0.30783290024548765,4.5029269210428,-8.457437285003065
1667508276743008500,3.878008544921875,-0.5047217922627926,4.29755223249197,-7.732187074199318
1667508276753055500,3.888055419921875,-0.7326175247013569,3.887182794618606,-6.409851844733953
1667508276763102500,3.8981025390625,-0.9943301865458488,3.2510067055404184,-5.116330037298798
1667508276773149400,3.9081494140625,-1.3600658251836895,2.554576931029558,-4.0494466557174915
1667508276783196700,3.91819677734375,-1.6828662851974368,1.7345272065907715,-3.1116777298271656
1667508276793243600,3.92824365234375,-1.8832032718420029,0.8248889811635017,-2.37547650142014
1667508276803290600,3.93829052734375,-2.0490400229915977,-0.05181435838937759,-1.8719611623376606
1667508276813337600,3.948337646484375,-2.1177800894796848,-0.8891840509414672,-1.5476000288784504
1667508276823385600,3.958385498046875,-2.0696037953317163,-1.6184785686999559,-1.364953304964304
1667508276833432600,3.9684326171875,-1.9452289353832601,-2.07685186676383,-1.4021329888015985
1667508276843479600,3.9784794921875,-2.0126129110872744,-2.145201180368662,-1.6932465171754358
1667508276853526500,3.988526611328125,-2.2324875418946144,-1.9231687870055436,-2.1258026524156333
1667508276863573500,3.998573486328125,-2.423571547025442,-1.6145067424595354,-2.6053397345393896
1667508276873620500,4.008620361328125,-2.616503810371458,-1.3095891451388597,-3.1570638087347147
1667508276883667700,4.018667724609375,-2.8238401543840763,-1.094730588927865,-3.6577293113440272
1667508276893714700,4.028714599609375,-3.049540714865923,-0.9625777884542942,-4.065910299262404
1667508276903761700,4.03876171875,-3.3463539161860942,-0.733139502748847,-4.465034997282922
1667508276913808600,4.04880859375,-3.5749113274037834,-0.28370237533450127,-4.934623809105157
1667508276923855600,4.058855712890625,-3.6247204834505915,0.36293197939395905,-5.508152595612406
1667508276933902600,4.068902587890625,-3.560716213312745,0.958944984909892,-6.0714405586123465
1667508276943949800,4.07894970703125,-3.409946975174546,1.3589409128069876,-6.416298536655306
1667508276953997600,4.08899755859375,-3.238709534025192,1.6171721622765063,-6.477927602094412
1667508276964044500,4.09904443359375,-3.0075591837048528,1.9271300918519496,-6.391656847351789
1667508276974091500,4.109091552734375,-2.7254513840854164,2.2872177877306936,-6.171738669663667
1667508276984138500,4.119138427734375,-2.529679221138358,2.6192805816084146,-5.74436841262877
1667508276994185700,4.129185791015625,-2.433241292646527,2.764828285706043,-4.943099961027503
1667508277004232700,4.139232666015625,-2.248552541510761,2.6350141573131083,-3.833087047293782
1667508277014279700,4.14927978515625,-1.8917934055328367,2.433252398562431,-2.75476281876564
1667508277024326700,4.15932666015625,-1.6175822043821215,2.2326538383722303,-1.9425515328675507
1667508277034373600,4.16937353515625,-1.497303089314699,1.9592104067236185,-1.2756313459575175
1667508277044420600,4.179420654296875,-1.407945182211697,1.6124474718421697,-0.5925596501916647
1667508277054467600,4.189467529296875,-1.382521402619779,1.3034715390413998,0.07916589117348194
1667508277064514600,4.1995146484375,-1.3930021723628043,0.9045365183740853,0.8939730387836694
1667508277074562600,4.2095625,-1.2285773338377475,0.4112397909671068,1.4280162025988101
1667508277084609500,4.219609619140625,-0.8380408698119223,-0.2548825235635042,1.781032352656126
1667508277094656800,4.22965673828125,-0.23987141691446304,-1.0748001460552215,2.029240220761299
1667508277104703700,4.239703857421875,0.34476606197580695,-1.8338462434768676,2.172722224500775
1667508277114750700,4.249750732421875,0.8306674914997071,-2.5370076643303037,2.398655132433772
1667508277124797700,4.259797607421875,1.3440695068895816,-3.2288390051349998,2.679315655854344
1667508277134844400,4.269844482421875,1.7896435291349886,-3.704458037032187,2.878334253376722
1667508277144891400,4.279891357421875,2.0763246280193326,-3.8688454661563036,2.8162065907657143
1667508277154938600,4.289938720703125,1.9831904172480106,-3.7505151470690965,2.5245868664354085
1667508277164985600,4.299985595703125,1.602862481895089,-3.473575105476379,2.2072283052146435
1667508277175032600,4.310032470703125,1.0657684060767292,-3.131566963906586,1.825906098127365
1667508277185079600,4.32007958984375,0.6257292216047644,-2.8312355253323913,1.8008792088985441
1667508277195127800,4.3301279296875,0.5960612285718322,-2.556742292369902,2.275831301319599
1667508277205174800,4.3401748046875,0.765930011716485,-2.3249925148516892,2.9080221201539036
1667508277215221800,4.3502216796875,0.8674529883876443,-2.0684271527677773,3.3737048644483085
1667508277225268500,4.3602685546875,0.9227309312343597,-1.8063045949481427,3.5150451799839733
1667508277235315500,4.3703154296875,0.8667425020307302,-1.5672401105023919,3.5300767448991537
1667508277245362400,4.380362548828125,0.9755933373719453,-1.4395254386067389,3.501286119222641
1667508277255409700,4.39040966796875,1.331265554895997,-1.4648659238293766,3.528574523642659
1667508277265456600,4.40045654296875,1.421080265855789,-1.3930762605123221,3.754074300855398
1667508277275503600,4.410503662109375,0.8497504506975412,-0.9802451817657798,4.346414170816541
1667508277285550600,4.420550537109375,-0.249017430922389,-0.48412952448055147,5.22699639762938
1667508277295597600,4.43059765625,-6.874695215594768,2.446779258003086,6.022796646952629
1667508277305644500,4.44064453125,-8.221556399029494,7.474162745478749,7.6626961893439285
1667508277315692500,4.450692626953125,-7.56873604914248,5.747341875481605,8.899019607263803
1667508277325739800,4.46073974609375,-4.754987957444786,0.722971452216804,-0.7025239997327327
1667508277335786800,4.470786865234375,0.31105975333750246,-7.3162874747276305,-0.07109539744257927
1667508277345833700,4.480833740234375,-6.65622431410551,-5.326282701289654,-4.490546747419238
1667508277355880700,4.490880615234375,-6.088923023810982,3.6955534305647015,-5.3091491956591605
1667508277365927700,4.500927734375,-6.418775155901908,4.496675459432602,-2.533455817067623
1667508277375974700,4.510974609375,-8.781467579072713,1.06313747305125,-0.9149094438284635
1667508277386022000,4.52102197265625,-11.234272234845161,-1.3447092660978435,0.3043085255116224
1667508277396068900,4.53106884765625,-12.31327275519967,-1.9682750260584054,-1.0611591587156057
1667508277406115800,4.54111572265625,-10.506411549282074,1.8169743113920092,-3.1422412103950976
1667508277416162800,4.551162841796875,-8.574355106943845,5.49846648337841,-4.013431924006342
1667508277426209800,4.561209716796875,-5.335672460925578,5.150407663467526,-3.3575913495153187
1667508277436257800,4.5712578125,-1.8385364471197128,3.4878380241066216,-2.131097836214304
1667508277446304800,4.5813046875,0.5233674560219049,2.150690279304236,-1.528213775885105
1667508277456351700,4.591351806640625,2.072726895788312,1.7739651907488703,-1.6012275741696356
1667508277466398700,4.601398681640625,2.938861495053768,2.207609851878136,-1.4616963538825511
1667508277476445700,4.61144580078125,3.7848049546837803,1.6074980327412485,-0.762058138719201
1667508277486493000,4.621492919921875,4.612324284350872,0.47780660506933925,0.33349428798556324
1667508277496540000,4.631539794921875,5.164428590035438,-0.8148720295399426,1.7465917383939027
1667508277506587000,4.6415869140625,5.395498860856891,-1.8072046125277876,2.9770430494099855
1667508277516633900,4.6516337890625,5.986303776335716,-2.197465912874043,3.915751886498928
1667508277526680800,4.661680908203125,6.366344711440801,-2.3386973612077533,4.744858777618408
1667508277536727600,4.6717275390625,6.167856275272369,-1.6351859578728676,4.935359722164273
1667508277546775800,4.68177587890625,5.841857896000146,-0.5959125408161431,5.349677605402469
1667508277556822800,4.69182275390625,5.545928491777182,0.23218144693374632,5.485352734783292
1667508277566869800,4.701869873046875,5.273437830808758,0.07029679441079496,4.363379918664694
1667508277576916700,4.711916748046875,5.026463888412714,-0.8547986739978194,3.0632384008288382
1667508277586964000,4.7219638671875,4.512200945344567,-2.073946792972088,2.230050962397456
1667508277597011000,4.732010986328125,4.639291786253452,-1.4382957506813108,3.456698789477348
1667508277607058000,4.742057861328125,4.64138379009664,-0.11782003147751093,4.779758241564035
1667508277617105000,4.75210498046875,4.105427486136556,0.39284488709867,4.9681782881826155
1667508277627151600,4.762151611328125,2.843897146245837,0.4427376297757029,3.2588790463507173
1667508277637198600,4.772198486328125,1.9576397964060306,0.03674129242002964,1.8171973064929245
1667508277647245800,4.782245849609375,1.5004887336134909,-0.41718993154317136,1.7109926017463206
1667508277657293800,4.7922939453125,1.7605816853016614,-0.7582184144258499,1.9967004716843366
1667508277667340800,4.8023408203125,1.8616846829950808,-0.4939093063473701,2.483001641115546
1667508277677387800,4.8123876953125,2.653037889781594,0.3066378452420235,2.353995906496048
1667508277687434800,4.822434814453125,1.8907202233433722,1.2779501442939043,0.8432119888395071
1667508277697482000,4.83248193359375,0.8127993149191141,2.38181797940135,-1.0602104796886442
1667508277707528700,4.84252880859375,0.6046411331295967,1.1377081453889608,-0.809278155055642
1667508277717575700,4.85257568359375,-1.013128995040059,1.5685191905274987,-1.505460676807165
1667508277727622700,4.86262255859375,-2.2484283306092023,3.9863372885927557,-2.335548980179429
1667508277737669600,4.872669677734375,-3.3136972627311945,6.318617330104113,-2.988963204306364
1667508277747716600,4.882716552734375,-4.301352209296822,6.286746858590841,-3.5548943752914663
1667508277757764900,4.892764892578125,-4.927635265392065,5.730588893601298,-4.15967111749947
1667508277767811800,4.902811767578125,-4.580279625314474,5.285381951102614,-4.349245594850182
1667508277777858800,4.91285888671875,-4.0991853768765925,5.1506128306508066,-5.521506582704186
1667508277787905800,4.92290576171875,-3.895933671829104,4.470955327242613,-5.9971770525276655
1667508277797952800,4.932952880859375,-4.817641105234623,3.858691151888668,-5.309726703286171
1667508277807999700,4.942999755859375,-5.529599872788786,3.5910812486991284,-4.103364123865962
1667508277818046700,4.953046630859375,-4.903972065731883,2.9469881028860807,-2.5350229202538728
1667508277828093700,4.96309375,-3.7578310230404135,1.5728633572116493,-2.376712765216827
1667508277838140700,4.973140625,-2.2470938671350478,-0.20281331363022326,-2.033982446852326
1667508277848189000,4.98318896484375,-0.650325610461831,-1.5261220643028617,-2.406104279395938
1667508277858236000,4.99323583984375,-0.20095862567424774,-2.0850886569723484,-2.283836328598857
1667508277868283000,5.003282958984375,-0.006593406915664672,-1.949438369771838,-1.5553689093142746
1667508277878329900,5.013329833984375,0.04135843082666397,-1.9493778717562555,-0.8259335217803716
1667508277888376800,5.023376953125,0.13746318184137343,-2.0919930295333264,0.052797524207830425
1667508277898423600,5.033423583984375,0.42819618646502494,-1.9917168380528687,0.5465519322544335
1667508277908470800,5.043470703125,0.056692778080701826,-1.2644634707331657,0.4314566495656967
1667508277918517800,5.053517822265625,-0.14081716844439507,0.1279942194893956,0.2921352726370096
1667508277928564700,5.063564697265625,0.19470190336704252,1.4284312131404875,0.33576164839565753
1667508277938611700,5.07361181640625,0.46797465462386606,1.957042415034771,0.5661246477305889
1667508277948658700,5.08365869140625,0.8469301325798034,1.7176657958999275,1.0055997685790061
1667508277958707000,5.09370703125,1.0371329709619284,0.6197500010646879,1.7108529010146856
1667508277968754000,5.10375390625,0.8025918091595172,-0.10677987428605556,2.6373399699121713
1667508277978801000,5.11380078125,0.8795417778491973,-0.18518559474200008,3.3889164621055126
1667508277988847600,5.12384765625,-0.045693829682469364,-0.20430720544978975,4.171061111041904
1667508277998894600,5.13389453125,1.4903978399708866,-0.3157153240583837,4.1914702773422
1667508278008941800,5.14394189453125,1.8110574885636568,-0.5619026461213826,4.8957700545758005
1667508278018988800,5.15398876953125,1.4839946949303149,-0.2419268881395459,5.961280978760123
1667508278029035800,5.164035888671875,1.9420330619513988,0.2875060054011643,6.58615709066689
1667508278039082800,5.174082763671875,2.092895239070058,-0.14138430080786346,5.883040385738015
1667508278049129700,5.184129638671875,1.6351158152461052,-1.1551657684072851,5.318603252702951
1667508278059176700,5.1941767578125,1.0005638202384113,-1.4109845499075948,6.704373720246553
1667508278069225000,5.204224853515625,0.8581517838180065,-1.8101313136294483,6.7415551576495165
1667508278079271700,5.214271728515625,1.3468357567325233,-2.055375071232021,6.72252546300888
1667508278089318700,5.224318603515625,1.1615174755215645,-1.9017346615716815,6.333769306528568
1667508278099365600,5.23436572265625,0.41119653634727,-1.5518421964928506,6.257275849434733
1667508278109412600,5.24441259765625,0.3976894045203924,-1.4021011323586106,5.778260160836577
1667508278119459800,5.2544599609375,0.18993001279011368,-1.6302154759839176,5.727297450840473
1667508278129506800,5.2645068359375,-0.8788833139404654,-1.5013526569664477,5.077966112112999
1667508278139553800,5.2745537109375,-1.8413542810194192,-1.2658099169060588,2.7453976090490815
1667508278149600800,5.284600830078125,-2.3845063417024908,-1.2136420689038931,1.3138175764888524
1667508278159647700,5.294647705078125,-2.5538199751824138,-1.1645032133340836,0.1601344478547573
1667508278169694700,5.30469482421875,-3.0348207001179457,-0.4729788926519453,-1.957478468364477
1667508278179742700,5.31474267578125,-2.5385692145586014,0.9744166948080062,-3.8168905302524565
1667508278189789700,5.324789794921875,-2.023117938488722,2.836137033638358,-5.512635878506303
1667508278199836700,5.334836669921875,-2.036424579307437,4.284963676814734,-6.699792822197079
1667508278209883600,5.344883544921875,-2.0605717630922795,4.8582104315102095,-7.150820433673262
1667508278219931000,5.354930908203125,-1.8195996914595365,4.913423784688115,-7.467291106143593
1667508278229977900,5.364977783203125,-1.2677648503661154,4.777643441367149,-7.716677370378375
1667508278240024800,5.37502490234375,-0.8711457054257392,4.717254731377959,-7.819327597513794
1667508278250071800,5.38507177734375,-1.112962995710969,4.619676692940295,-7.496309695357084
1667508278260118800,5.395118896484375,-1.7023229730784892,4.110487984396517,-6.630794689294696
1667508278270165800,5.405165771484375,-1.8261381533175707,3.1412177125662564,-5.337004586312174
1667508278280213000,5.415212890625,-1.5167565623253583,2.195909038820863,-4.071915677157044
1667508278290260700,5.4252607421875,-1.445689221933484,1.7250979917272924,-3.0554829643964765
1667508278300307700,5.4353076171875,-1.1590122147023678,1.9514118618018923,-2.525430331522226
1667508278310354700,5.445354736328125,-0.9799684106510131,2.893946540789306,-2.7117712337791917
1667508278320401200,5.455401123046875,-0.7346674429684877,3.764033384811878,-3.3183214154005047
1667508278330448400,5.465448486328125,0.4470896144401282,3.715934539814293,-3.8893437720447777
1667508278340495400,5.475495361328125,2.318474511259794,2.440027445655316,-3.8633255336910484
1667508278350542300,5.485542236328125,3.908655206236243,0.5008415898285806,-3.009680998164415
1667508278360589300,5.49558935546875,4.662755663949251,-1.2851100990511477,-1.45114281116426
1667508278370636300,5.50563623046875,4.796173369792103,-2.2144401362895962,0.5235433971107005
1667508278380683300,5.515683349609375,4.448787334576249,-2.0277195870652793,2.597698279875517
1667508278390731300,5.525731201171875,3.755537943667173,-1.044072268705815,4.661698848372698
1667508278400778200,5.5357783203125,2.5608997043102977,0.07218757659345865,6.316889483398199
1667508278410825200,5.5458251953125,0.8167577702213078,0.728384563306719,7.160398409357667
1667508278420872200,5.5558720703125,-0.9302285204481333,0.42815176280140876,7.300785954213142
1667508278430919200,5.565919189453125,-2.5383038416206833,-0.6073692429192364,7.208299393695593
1667508278440966400,5.57596630859375,-3.3184804053545,-1.7671050957210361,7.12033060286343
1667508278451013400,5.586013427734375,-3.1866169432163236,-2.2295975195415316,7.274425770553946
1667508278461060400,5.596060302734375,-3.4790357089698314,-1.2113720781452952,7.58009214041531
1667508278471107300,5.606107421875,-6.457466997867822,1.1947973754413426,6.509201861280203
1667508278481154300,5.616154296875,-10.508978769421576,3.6883562125369904,3.1992122208952902
1667508278491201300,5.626201171875,-13.099533022761344,4.289262543052435,0.44934828008711336
1667508278501249300,5.636249267578125,-14.302551552450655,2.638763280713558,-0.22177228112220762
1667508278511296300,5.646296142578125,-14.240686924690007,1.2382032403171062,-1.0091413867086172
1667508278521343200,5.65634326171875,-12.677630968004465,1.0359428843945264,-3.4593349831998346
1667508278531390200,5.66639013671875,-10.855857439637184,1.2157935478493571,-6.006994682186842
1667508278541437400,5.6764375,-9.5395819486022,1.990724027623236,-7.294183779469132
1667508278551484400,5.686484375,-17.271278608936072,7.905243547469377,-8.338036414074898
1667508278561531400,5.696531494140625,-17.285896332353353,17.233426140403747,-2.013486771312356
1667508278571578400,5.706578369140625,33.13493732209206,9.512870467287302,2.168883084729314
1667508278581625300,5.716625244140625,40.51532580533027,4.633890219470858,-9.920115051138401
1667508278591672000,5.726672119140625,-0.8528909406803548,3.354673416242003,-14.466635030192135
1667508278601719300,5.73671923828125,-3.431220941610634,-0.32343145139366386,-3.186965318262577
1667508278611767300,5.746767333984375,-0.6386755046784878,-5.049864053222537,0.9340110346615313
1667508278621814300,5.756814208984375,2.017915693670511,-5.387358224499225,-1.2743114955306052
1667508278631861200,5.766861328125,5.73368159891963,-2.0258584693685173,-4.671394897478819
1667508278641908200,5.776908203125,6.037715983664989,3.114855190819502,-5.193773926985264
1667508278651955500,5.78695556640625,4.275929598748684,7.972859870624542,-5.531817548838258
1667508278662002400,5.79700244140625,3.3349884725630283,10.750437747788428,-6.239966402715444
1667508278672049400,5.80704931640625,3.474201712942123,8.672137435781956,-4.936286773881316
1667508278682096000,5.81709619140625,2.829946654565632,4.378120683939755,-3.1026041965335605
1667508278692143000,5.82714306640625,1.6257365770041943,1.521053967258334,-2.132632206174731
1667508278702190000,5.837190185546875,1.1215984298482538,0.11539426563531159,-1.551004284363985
1667508278712238300,5.84723828125,1.2944623031556606,-0.49823915224522347,-0.7779343377649783
1667508278722285300,5.857285400390625,1.214601707716286,-0.43057548281699415,0.2847773110896349
1667508278732332300,5.867332275390625,1.0117772881701588,0.029169395861029623,1.2816332167208193
1667508278742379300,5.877379150390625,0.283668326934427,0.37116584699302907,1.8230553848713635
1667508278752426500,5.887426513671875,-0.9305813524737954,0.3653337798386812,1.8897241980433463
1667508278762473500,5.897473388671875,-1.762837355273962,-0.08965279839634895,1.635779832112789
1667508278772520200,5.907520263671875,-1.9733204728797078,-0.8934735648289323,1.2999866195350884
1667508278782567200,5.917567138671875,-2.1631635380387304,-1.6464695684313773,1.0782990940868853
1667508278792614100,5.9276142578125,-2.543421915286779,-2.1696502697095275,1.1367091974794863
1667508278802661000,5.9376611328125,-2.831931106381118,-2.4290289356485006,1.3816612786591052
1667508278812709400,5.94770947265625,-3.4246108758211133,-2.4517931406423448,1.7088205184042453
1667508278822756400,5.95775634765625,-4.167211742137372,-2.2090140195876358,2.0899007334291935
1667508278832803300,5.96780322265625,-4.282580581070483,-1.953492905859649,2.373563361275196
1667508278842850300,5.977850341796875,-4.255709817540645,-1.8520912174805997,2.4504274052470922
1667508278852897300,5.987897216796875,-4.062805611245334,-1.8742033883064984,2.612773099410534
1667508278862944300,5.9979443359375,-3.8201939557120204,-2.0801853951007128,2.74245395681262
1667508278872991200,6.0079912109375,-4.532302945391834,-2.1305261738061905,2.530132810124755
1667508278883038200,6.0180380859375,-6.0666194220662115,-2.1185925749063492,2.180977427148819
1667508278893085200,6.028085205078125,-6.399008963680267,-2.232809321194887,1.963261727941036
1667508278903132200,6.038132080078125,-6.0833916931688785,-2.228992977777123,1.8816992970198392
1667508278913179100,6.04817919921875,-5.610332282626628,-2.1037778676122425,2.114041487473249
1667508278923227400,6.058227294921875,-5.892184061658382,-1.8486641656413674,2.017937905502319
1667508278933274400,6.0682744140625,-7.069488304376602,-1.648307012991607,1.3821084379047155
1667508278943321300,6.0783212890625,-7.819545624178647,-1.6338360045686364,0.7548235112905501
1667508278953368000,6.0883681640625,-7.9541130845785135,-1.6390449713885784,0.6317512583732605
1667508278963415300,6.098415283203125,-7.092904251277447,-1.5508181141421198,0.778296741336584
1667508278973462300,6.108462158203125,-6.27938305182457,-1.3557915088653563,0.09067921883463859
1667508278983509200,6.11850927734375,-4.849398764023184,-1.6421876533284783,-1.1180880836397409
1667508278993556200,6.12855615234375,-1.2303916897833347,-2.1221762786120175,-2.7312796518474816
1667508279003603200,6.138603271484375,-2.4035046182915565,-0.2461608724474907,-4.1937510817557575
1667508279013651500,6.1486513671875,-6.5186255231857295,3.048062459006905,-4.738727727517485
1667508279023698400,6.158698486328125,-7.3063167003333565,3.716591250157356,-5.415319998136162
1667508279033745400,6.168745361328125,-5.314421583104133,1.2161083128869532,-5.113794965863227
1667508279043792100,6.178792236328125,-3.8067747944295403,-1.3772349866494535,-3.842883634164929
1667508279053839000,6.188839111328125,-4.677288047170639,-1.6522870225384831,-3.8062206676781174
1667508279063886000,6.198885986328125,-5.391917495238781,-0.6190057585686445,-5.255321743881702
1667508279073933300,6.208933349609375,-5.146168126201629,-0.01752308946996927,-6.525013762918114
1667508279083980300,6.218980224609375,-4.599408688676357,0.15062018505632876,-6.39950639180839
1667508279094027300,6.22902734375,-3.073626523852348,0.10362608643025159,-5.130118324154615
1667508279104074200,6.23907421875,-2.329347787451744,-0.1162482521161437,-2.9021126038491722
1667508279114121200,6.249121337890625,-2.611761876541376,-0.241445534363389,-0.5714017113506794
1667508279124169500,6.25916943359375,-3.9298447092592714,0.20740327176898718,0.1489759249806404
1667508279134216200,6.26921630859375,-6.215921510261297,0.8232613799616694,-0.651938890877366
1667508279144263200,6.27926318359375,-7.389608731526136,0.5173673388242721,-0.7127911267250776
1667508279154310100,6.28931005859375,-7.468197115072607,-0.3349678676694631,0.5262129085808992
1667508279164357000,6.299357177734375,-7.664543278515338,-0.8632806711390614,2.1802865222752095
1667508279174404400,6.309404296875,-7.8537939307391635,-0.7481251826956867,3.5961207041710614
1667508279184451300,6.319451416015625,-7.322259534874558,-0.3199842335492372,4.892997082731127
1667508279194498300,6.329498291015625,-6.538229218322038,0.1727463844075799,5.665031841063499
1667508279204545300,6.339545166015625,-6.290903393748402,0.6985396062716841,5.5369841378211975
1667508279214593300,6.34959326171875,-5.8399956092596055,0.9502686342403293,4.684124030670524
1667508279224640300,6.35964013671875,-5.691666165488958,0.7076999410659074,4.269585198158025
1667508279234687200,6.369687255859375,-5.354202973872423,0.5288897265747189,4.247231327530741
1667508279244734200,6.379734130859375,-4.9196238083720205,0.5822568673640489,3.867197991210222
1667508279254781200,6.38978125,-3.840241595223546,0.5729428033128381,3.0599995650380847
1667508279264828200,6.399828125,-2.8740508769690987,-0.05006313080787658,2.0749586003631353
1667508279274875100,6.409875244140625,-2.668455823665857,-1.0002525623321532,1.3230085986822844
1667508279284922400,6.41992236328125,-3.2384009064674375,-1.6106880609542131,1.1182453200280666
1667508279294969300,6.42996923828125,-3.761821553981304,-1.9442317410394547,1.4296750757217407
1667508279305016300,6.440016357421875,-4.1395045277833935,-2.110173998390138,1.784838759201765
1667508279315064800,6.45006494140625,-4.207662118208408,-2.239159567004442,2.167299030408263
1667508279325111800,6.46011181640625,-3.5585201645731925,-2.4518361030012366,2.45199801556468
1667508279335158800,6.47015869140625,-3.3782501066625117,-2.531285195030272,2.2346634246289727
1667508279345205800,6.480205810546875,-4.205963497596979,-2.1858310046598315,1.7633733618468046
1667508279355253000,6.4902529296875,-4.5244297277987,-1.7969477146685122,1.2231050399065018
1667508279365300000,6.500300048828125,-4.434827198284864,-1.5524723110899328,0.11025310335457324
1667508279375347000,6.510346923828125,-4.843087388919294,-1.1616738351270557,-1.4213169972211122
1667508279385394000,6.520393798828125,-4.872468673965335,-0.6273690977662801,-2.8780612816542384
1667508279395441000,6.53044091796875,-4.169940874840319,-0.5058993116095661,-3.950861778324842
1667508279405488000,6.540488037109375,-3.2779321218669413,-0.9905705417513847,-4.470990983077884
1667508279415535900,6.550535888671875,-3.09103329346627,-1.291809450559318,-4.746368597659468
1667508279425582800,6.560582763671875,-3.4598832647323605,-1.088001572933793,-4.840009588909149
1667508279435629800,6.5706298828125,-3.712985042358935,-0.5299444963246583,-4.718980239996314
1667508279445676800,6.5806767578125,-3.724302847447991,0.13088438797295093,-4.342940941748023
1667508279455724000,6.59072412109375,-2.7735411689937113,0.3097869569227099,-3.5874317862808702
1667508279465771000,6.60077099609375,-1.0075187539428472,-0.27935499377995726,-2.420315175577998
1667508279475818000,6.61081787109375,1.9331907070651648,-1.1530141433313488,-0.8708265564739703
1667508279485865000,6.620864990234375,3.9622786598742006,-1.8249679404944181,0.42641397922337054
1667508279495912000,6.630911865234375,1.5380840125143527,-1.7156196770250796,0.5285141712605953
1667508279505959000,6.640958984375,-2.06620786928311,-0.625784166662395,-0.6829413473844528
1667508279516007000,6.6510068359375,-2.671382524767518,0.14523966106176375,-1.7125106050938368
1667508279526054000,6.661053955078125,-1.6153250731050968,0.2611956522330642,-2.3456728993088007
1667508279536100900,6.671100830078125,-0.5906807045772672,0.3937777840346098,-3.1903345024347303
1667508279546147800,6.68114794921875,0.9171671596273779,0.12333704133331774,-3.8885160890489816
1667508279556194800,6.69119482421875,1.2488342321857808,-0.3930550227180123,-3.6706910842478275
1667508279566242000,6.701241943359375,0.27649492817372084,-0.27269933528304097,-2.940463085031509
1667508279576289000,6.7112890625,0.19633491139635442,-0.050718964368104934,-2.590669988673925
1667508279586336000,6.7213359375,0.5438628393009305,-0.38419747026264667,-2.1755004570424554
1667508279596383000,6.731383056640625,0.8671240486942231,-0.8300809968486428,-1.3268769645482301
1667508279606429700,6.7414296875,1.2440657026097177,-1.1708423532277346,-0.29824411090612407
1667508279616478000,6.75147802734375,0.9593158640488981,-1.1403379093706607,0.7646937479197978
1667508279626525000,6.76152490234375,1.276798051649332,-1.155115499524772,1.6289058546900748
1667508279636572000,6.771572021484375,0.12561843026876449,-1.2365227398842573,1.7725263901174066
1667508279646619000,6.781618896484375,0.0992097312927246,-1.6455083221837876,1.904672760850191
1667508279656665900,6.791665771484375,0.8680801803752779,-2.024205879855901,1.5604425593167544
1667508279666713000,6.801713134765625,0.8166510219112039,-1.617866574281454,0.6534545561373234
1667508279676760000,6.811760009765625,0.29461773710250855,-0.8057377059698104,-0.06316928061842918
1667508279686807000,6.82180712890625,0.7893029962584376,-0.3599592471934855,-0.4244634296774864
1667508279696853800,6.831853759765625,1.9839044107362627,-0.4182366641171276,-0.8293944758892059
1667508279706900700,6.841900634765625,2.9435303636476395,-0.7803468057341874,-1.1181202323436736
1667508279716949000,6.851948974609375,3.365677333076298,-1.2097561673812567,-0.8788567181944846
1667508279726996000,6.861995849609375,3.373065105240047,-1.7232617162108421,-0.4070774105906486
1667508279737043000,6.87204296875,3.0665614077717063,-2.1498669802226127,-0.2760579980611801
1667508279747090000,6.88208984375,2.9594559547930954,-2.35616419044584,-0.6158890878528356
1667508279757137000,6.892136962890625,2.9399001904517412,-2.370240354332328,-1.4502245272755623
1667508279767184000,6.902183837890625,3.407352867028117,-2.23106072396189,-2.579782683956623
1667508279777231000,6.912231201171875,4.112771419158578,-1.9325629305556415,-3.847583774679899
1667508279787277800,6.92227783203125,4.333052000418305,-1.5965303562641142,-4.815617490452528
1667508279797324800,6.93232470703125,4.231569648018479,-1.4440851477377117,-5.573635998392104
1667508279807372800,6.942372802734375,3.6932816862404345,-1.251189563140273,-6.636222559562325
1667508279817420000,6.952419921875,3.7046605738669633,-0.9087721101172268,-7.5891609975337975
1667508279827467000,6.962467041015625,4.964786307656765,-0.46075317893773315,-8.021430717048048
1667508279837514000,6.972513916015625,5.713660555154084,-0.05516191525161266,-8.01641259662509
1667508279847561000,6.98256103515625,5.607435976663232,0.3444017587080598,-7.886372842782736
1667508279857608000,6.99260791015625,5.62383240019083,0.669516633144021,-8.149222399702667
1667508279867655000,7.002655029296875,5.79541412473321,0.8908166205793618,-8.88932881885469
1667508279877702000,7.012701904296875,5.741704161855578,1.1927549098283052,-9.770178172171116
1667508279887748900,7.022748779296875,5.464564213776588,1.8761422474145888,-10.795293957602977
1667508279897795800,7.0327958984375,5.528998399764299,2.4829753376305104,-11.779566860514878
1667508279907843800,7.04284375,5.586498402574658,2.8647698384046554,-12.59552317816019
1667508279917890800,7.052890869140625,5.813983216124773,3.1119460253745315,-13.30776777691841
1667508279927938000,7.06293798828125,5.903966269388794,3.346598246335983,-13.764406798535585
1667508279937985000,7.072985107421875,5.8161202281534665,3.641205462044477,-14.030497529333829
1667508279948032000,7.083031982421875,5.3065094948053355,4.017355819451809,-14.778611898374557
1667508279958079000,7.093078857421875,5.043223300033808,4.5578807465016835,-15.788159527796505
1667508279968125700,7.103125732421875,5.328119853588938,4.847193362933397,-16.25759139549136
1667508279978173000,7.1131728515625,5.631779559803008,4.614951710245013,-16.05411932569146
1667508279988220000,7.123219970703125,6.106361649867892,4.087981845816969,-15.318088193154335
1667508279998268000,7.133267822265625,6.3932058303594586,3.6443151184976097,-14.288077621418237
1667508280008315000,7.14331494140625,5.859747188434004,3.6445027500241993,-13.020754669600725
1667508280018361900,7.15336181640625,5.2352703049778935,3.8251556697726246,-11.953992868572472
1667508280028409000,7.1634091796875,4.7319501962065695,3.90159242824316,-11.40904311081767
1667508280038456000,7.1734560546875,4.541528162115812,3.6245313906192775,-10.932934834098814
1667508280048503000,7.1835029296875,4.311703507441282,3.294656462174654,-10.628066921138762
1667508280058549800,7.1935498046875,3.294432298029959,3.3592250881969927,-10.473864201420545
1667508280068596700,7.2035966796875,2.5524995402336117,3.5739433591544625,-10.324967771416903
1667508280078643700,7.213643798828125,1.9286907652974128,3.7324955062538385,-9.898452669906616
1667508280088691000,7.22369091796875,1.2380921811580656,3.8770927777588367,-8.954349280297755
1667508280098739000,7.233739013671875,0.3743219729363918,4.283269440117478,-7.544617506930232
1667508280108786000,7.243785888671875,-0.1329120944082737,4.464449014088511,-5.613046802282333
1667508280118833000,7.2538330078125,-1.1039151813805104,4.350823803952336,-3.577605388793349
1667508280128879900,7.2638798828125,-1.9024726204574107,4.231862493485212,-1.545498672685027
1667508280138927000,7.273927001953125,-2.3543653243303297,4.088962089025974,0.4692752158284187
1667508280148973800,7.283973876953125,-2.8674650688380003,3.9256846669703718,2.5005688619881865
1667508280159020800,7.294020751953125,-3.0860657341867683,3.5758255196392534,4.588169501781463
1667508280169067800,7.30406787109375,-3.3266590356349943,3.1422955709308384,6.4563868014156816
1667508280179114800,7.31411474609375,-3.905723244437575,2.869606172519922,7.709798716780543
1667508280189163000,7.3241630859375,-4.2014732004404065,2.4785657044947147,8.5695515060544
1667508280199210000,7.3342099609375,-4.447222569477558,1.8549790478765964,9.262205853679776
1667508280209257000,7.344257080078125,-4.519777518078684,1.2597153994232415,9.905036724472046
1667508280219304000,7.354303955078125,-4.66701039878428,0.8592863408058882,10.217461336421966
1667508280229351000,7.364350830078125,-4.624197677496076,0.5971615910291671,10.885827045965193
1667508280239398000,7.37439794921875,-2.8263988989561795,0.6695593032419681,10.833321782702207
1667508280249444900,7.38444482421875,-4.739834227454662,1.286307638272643,9.095600163984297
1667508280259491800,7.394491943359375,-5.707088775548338,1.1771686336398124,8.696288711220026
1667508280269538800,7.404538818359375,-4.534736602279543,0.6536614768862724,8.448316989958286
1667508280279586800,7.4145869140625,-4.267593147557974,0.48192894569635386,7.989698777222633
1667508280289634000,7.424634033203125,-3.4491549499690533,0.18705401896238327,8.32823924268186
1667508280299681000,7.434680908203125,-3.000734306120872,-0.42238253175020213,9.214487240171431
1667508280309728000,7.44472802734375,-3.071062810844183,-1.5711498312920331,10.222556029212475
1667508280319775000,7.45477490234375,-3.061539780217409,-3.442909333577752,12.108995214235781
1667508280329822000,7.464822021484375,-2.9168869791328906,-5.655659617084265,14.669466464000939
1667508280339868700,7.47486865234375,-2.058134306812286,-8.161905940186976,17.678090646588803
1667508280349915600,7.48491552734375,-0.8542576989889145,-10.514393780207634,21.163664817416667
1667508280359963000,7.494962890625,-1.7055378434717654,-11.461840635025501,24.370882650113103
1667508280370009900,7.505009765625,-4.088348341041804,-8.310361056163906,22.61337964160442
1667508280380057900,7.515057861328125,-5.48151417953372,-3.7974277048915623,16.41352313095927
1667508280390104800,7.525104736328125,-1.226448505115509,-2.597436414068937,11.456424455195664
1667508280400152000,7.535152099609375,3.813803085631132,-0.5206488447129726,4.249737757393717
1667508280410199000,7.545198974609375,7.790268091768026,3.847175778400898,-1.4967672288723288
1667508280420245800,7.555245849609375,8.718926074963807,9.914451034027337,-4.967663324397802
1667508280430292700,7.565292724609375,9.875137260770797,19.028420382916927,-10.846624331867694
1667508280440339700,7.575339599609375,14.700642523509263,31.32514298533201,-20.808312917888163
1667508280450386700,7.58538671875,26.724244934880733,44.20536573317051,-30.26660423824787
1667508280460435000,7.59543505859375,15.396241107892989,50.56615631761551,-29.643199952459334
1667508280470482000,7.60548193359375,2.093214388021827,47.894353521609304,-10.945069508528709
1667508280480529000,7.61552880859375,17.178913628971575,44.44671248333454,18.42347763649225
1667508280490576000,7.625575927734375,24.4818997235775,36.51319795014858,36.018425889492036
1667508280500622800,7.635622802734375,4.803329671287536,25.949709007382392,21.620478026556967
1667508280510669800,7.645669921875,-14.674888489049673,16.500634428179264,10.31963576273918
1667508280520716800,7.655716796875,-9.637118193724751,0.6414262646913528,11.57034894053936
1667508280530763800,7.665763671875,-3.3907448465764523,0.000720130968093872,14.3181349060297
1667508280540810800,7.675810791015625,-2.618259421867132,10.114214896959066,12.276238617312908
1667508280550859000,7.68585888671875,-0.9797579097054898,13.444896612238884,7.313083710250258
1667508280560906000,7.695906005859375,-2.3346726357363163,9.355283950349689,1.2938019395507872
1667508280570953000,7.705952880859375,-0.29467049020305275,5.880266244849563,-3.3241783247351644
1667508280581000000,7.716,-0.9827203397076576,6.7686945089876644,-4.533130920648574
1667508280591047000,7.726046875,-5.296332384184002,9.723490655276178,-2.334923395626992
1667508280601094000,7.736093994140625,-5.557429544478654,9.370390334066748,1.8549867927916346
1667508280611140900,7.746140869140625,-1.6763924130082128,7.907230921894311,6.887886705601215
1667508280621187800,7.756187744140625,3.2794144693791862,6.518592789959907,8.168583518254756
1667508280631234800,7.76623486328125,4.350377813750505,6.165679515755176,5.2220852447122335
1667508280641282800,7.77628271484375,3.3433518117606638,6.465221265256404,3.291818023878336
1667508280651329800,7.786329833984375,3.2488334531545635,6.905713454192877,2.1922817882344123
1667508280661377000,7.796376953125,3.307064108327031,7.94197841014862,0.20120105612799524
1667508280671424000,7.806424072265625,2.3939210896492003,9.282012377911805,-1.2054440032705664
1667508280681471000,7.816470947265625,1.4771674792587757,9.906650004887581,-1.5684065239332616
1667508280691518000,7.82651806640625,-0.07692191163897513,9.919321270412206,-1.0680413194447755
1667508280701564700,7.836564697265625,-1.5232722278296946,9.909161110925673,0.2104812179096043
1667508280711611600,7.846611572265625,-1.5891817470669745,10.225260027474164,1.6487576793685554
1667508280721659000,7.856658935546875,-1.7373042700886725,10.218282005155086,2.700584361593425
1667508280731707000,7.866706787109375,-2.8184084847241637,8.39508224337697,3.3135794815704225
1667508280741753900,7.87675390625,-3.972857921555638,5.129827232253551,4.283051997974515
1667508280751800800,7.88680078125,-4.10700511071682,2.5006477724432945,5.063195243960618
1667508280761848000,7.89684814453125,-3.964883289414644,1.5938421400934457,4.955795191949606
1667508280771895000,7.90689501953125,-3.7410160818397995,2.3322879325568673,4.9902071646392345
1667508280781942000,7.91694189453125,-3.3746249019026755,4.421169259810448,5.299301170861721
1667508280791988700,7.92698876953125,-2.6073124959170815,7.114727376028895,4.857008069983125
1667508280802035700,7.93703564453125,-2.2336406574524936,9.312078430351614,3.62093628873676
1667508280812084000,7.947083984375,-1.6757963468112052,10.531679261529446,2.3378385524213314
1667508280822131000,7.957130859375,-0.5160428122222424,10.834218439280987,0.9834890590578317
1667508280832178000,7.967177978515625,1.0312029963910578,10.026984357273578,-0.6481757389515638
1667508280842225000,7.977224853515625,2.471285776619613,8.051166514620185,-2.4290083312518895
1667508280852271900,7.98727197265625,3.367063234476745,5.619995013985037,-4.218182927700877
1667508280862318800,7.99731884765625,3.5117139897346497,3.5169290940344333,-5.258730091020465
1667508280872365800,8.00736572265625,3.014444559304416,2.255950542807579,-5.755698200416565
1667508280882412800,8.017412841796874,2.466886080355942,1.573369260907173,-5.947881398960948
1667508280892459800,8.027459716796875,1.9840356359004974,0.9124410078883171,-5.990854863768815
1667508280902507800,8.0375078125,2.0224457383155823,-0.07836451166272163,-5.83888618671298
1667508280912554800,8.0475546875,2.9921155308574434,-1.8164000186353921,-5.598834737056493
1667508280922602000,8.05760205078125,3.8769916554719206,-3.816650291755795,-5.242541757285594
1667508280932649000,8.06764892578125,3.792618551044166,-4.082848574581742,-4.520291605080664
1667508280942696000,8.077696044921876,2.9682173533976077,-2.1853332842707633,-3.2692385278016327
1667508280952743000,8.087742919921874,1.5698960318386554,0.44657706180810924,-2.7767911107003687
1667508280962790000,8.097789794921875,-0.15240239229798316,3.544434940597415,-3.8570518602490425
1667508280972836900,8.1078369140625,-0.15542144785821438,7.334366152253747,-5.751200304475426
1667508280982884900,8.117884765625,2.4716934806376694,10.89572066347003,-7.579896325582266
1667508280992931800,8.127931884765625,5.820438091352582,12.69188745689392,-8.869867747059464
1667508281002978800,8.137978759765625,8.167706150898336,12.271191855317353,-9.563464343971013
1667508281013025800,8.14802587890625,7.766925794625282,11.308563797980547,-10.614815809899568
1667508281023073000,8.158072998046874,6.764729697009921,10.536088894665241,-11.386972733306884
1667508281033120000,8.1681201171875,6.878326265573501,9.651616090154647,-11.9996720852077
1667508281043167000,8.1781669921875,7.253202949783206,9.023591158828138,-12.353678415346145
1667508281053214000,8.1882138671875,7.290841483303904,8.793152171647549,-11.964342413151263
1667508281063260700,8.1982607421875,7.330418291410803,8.63398919917345,-11.343661999368667
1667508281073309000,8.208308837890625,8.276293951389192,8.08099642021656,-10.883826812058686
1667508281083356000,8.21835595703125,8.688581205582619,7.031601933574676,-10.356928259301185
1667508281093403000,8.22840283203125,7.942325616151094,6.311528833147883,-9.75810311897397
1667508281103449900,8.238449951171875,7.060844979193806,6.545090336263179,-9.19099062924981
1667508281113496800,8.248496826171875,6.5393555920034645,7.531489145287871,-8.68242560556233
1667508281123543800,8.258543701171876,6.331968979108333,8.505535253217817,-8.372193535220623
1667508281133591000,8.268591064453124,5.898791497099399,9.097868108916282,-8.357834170478581
1667508281143638000,8.278637939453125,5.713403365522622,9.015900019803643,-8.4663787163496
1667508281153685800,8.288685791015626,5.529905577737092,8.4599858004421,-8.677229790484905
1667508281163732700,8.298732666015624,5.380943096759915,7.720333554798364,-9.105214964547752
1667508281173780000,8.308780029296875,5.115781755766272,7.078492279565334,-9.516231468152998
1667508281183827000,8.318826904296875,4.761174537125229,6.555310701504349,-9.640264090535045
1667508281193874000,8.3288740234375,4.503092340737581,5.855262151974439,-9.498435114699602
1667508281203921000,8.3389208984375,4.13216293284893,4.9591357345491645,-9.347233914884924
1667508281213968000,8.3489677734375,3.526787640225887,4.051801694411039,-9.258704567560553
1667508281224014800,8.359014892578125,3.0556437079161403,3.211325268015265,-9.18349530505836
1667508281234062800,8.369062744140624,2.7955905037164688,2.4130162507414816,-9.120389152804016
1667508281244109800,8.37910986328125,2.4930998412817713,1.6822843936562537,-9.086733551439643
1667508281254156800,8.38915673828125,2.1398796930849553,1.0332119981259107,-9.063999157062172
1667508281264203800,8.399203857421876,1.8356348804593086,0.43147067809104916,-8.96506532010138
1667508281274250800,8.409250732421874,1.5367904655724762,-0.07834931409358978,-8.734163391584158
1667508281284298000,8.419298095703125,1.3712427604973316,-0.48971185465753075,-8.292697389179468
1667508281294345000,8.429344970703125,1.2987474331289528,-0.7943985658317804,-7.712519081655144
1667508281304392000,8.439391845703126,1.1805021619766949,-1.035647116318345,-7.115550967371464
1667508281314439700,8.449439697265625,1.0121709636628626,-1.1960299859762191,-6.624129970708489
1667508281324487700,8.45948779296875,0.9403688792556524,-1.3329185828000307,-6.3315276650816195
1667508281334534700,8.46953466796875,0.9531763383805751,-1.5308710123956202,-6.322398602208494
1667508281344581600,8.47958154296875,0.8870867864012718,-1.7479086662113665,-6.467975532400608
1667508281354628600,8.489628662109375,0.80682024050951,-1.9950123724669218,-6.554613366889953
1667508281364675600,8.499675537109376,0.7622311571985483,-2.225606842470169,-6.513624353897571
1667508281374722800,8.509722900390624,0.7758101852178573,-2.406575404039025,-6.366020301792025
1667508281384769800,8.519769775390625,0.8155313702315091,-2.48379600636363,-6.151343531888723
1667508281394817500,8.529817626953125,0.9181371737033128,-2.452086862891912,-5.872900099995732
1667508281404864500,8.539864501953126,1.0932616854190826,-2.2921154966443775,-5.514502256900072
1667508281414911500,8.549911376953125,1.321440910974145,-1.9870541069388388,-5.142588514149189
1667508281424958700,8.559958740234375,1.5100304689407347,-1.6758675123512743,-4.708001457603276
1667508281435005700,8.570005615234376,1.634683269047737,-1.4197259286373853,-4.191754939502477
1667508281445052700,8.580052734375,1.6416215438783168,-1.1798702938139438,-3.638149581605196
1667508281455099600,8.590099609375,1.6327666217714547,-0.8829074548900127,-3.088543814738095
1667508281465146600,8.600146728515625,1.7313544217735528,-0.5552911190271377,-2.613500244641304
1667508281475194600,8.610194580078126,1.9300231829449532,-0.2382341711014509,-2.2371700006224216
1667508281485241600,8.62024169921875,2.0903350331932304,0.05343932924270629,-1.9352488086387514
1667508281495288600,8.63028857421875,2.162970645815134,0.2644657599449158,-1.615122828531265
1667508281505335600,8.64033544921875,2.1366133847653863,0.3871890532940626,-1.247554713769257
1667508281515382500,8.650382568359374,2.099970584283769,0.49791620390117164,-0.8167749405518173
1667508281525429800,8.6604296875,2.0307295825362206,0.5408686259210109,-0.34489626422673464
1667508281535476700,8.670476806640625,1.9942504481837153,0.5861182189673185,0.10273527507036924
1667508281545523700,8.680523681640626,1.976147220738232,0.6444429821640253,0.4918778005197644
1667508281555571500,8.690571533203125,1.9231337156921624,0.7436071207493543,0.8328191896408795
1667508281565618400,8.700618408203125,1.8618530252993106,0.8827081329256296,1.1559615949600934
1667508281575665700,8.710665771484376,1.8031681966185569,1.0306360101580618,1.4529779176369308
1667508281585712600,8.720712646484374,1.7142513112813234,1.1541098296135663,1.6731272737324236
1667508281595759600,8.730759521484375,1.6162129618555305,1.2606652474939823,1.8223659413024782
1667508281605806600,8.740806640625,1.4920061519503593,1.3333569742172955,1.91352388356477
1667508281615853600,8.750853515625,1.3627701157063246,1.3984078307986259,2.0221470476299523
1667508281625901800,8.76090185546875,1.3949544754743575,1.4405834232270718,2.1684154672175646
1667508281635948500,8.770948486328125,1.480344647990167,1.4165028749376534,2.3797259755581615
1667508281645995500,8.78099560546875,1.4611737913131713,1.364734693777561,2.5846377227723596
1667508281656042500,8.79104248046875,1.3937611740365623,1.3227315353065727,2.762757909172773
1667508281666089500,8.80108935546875,1.3285212246239184,1.2575509148657322,2.9094191274702546
1667508281676136400,8.811136474609375,1.2869684402689336,1.1458277389585971,3.032469753077626
1667508281686183700,8.82118359375,1.328451081997156,0.9363409389138221,3.0948516827106474
1667508281696230700,8.831230712890624,1.3737667260169981,0.6940168681502342,3.1033687511652706
1667508281706278700,8.841278564453125,1.3965771082401275,0.5198030415385961,3.051449763357639
1667508281716325600,8.85132568359375,1.3582605293273926,0.37080490472614763,2.996893412783742
1667508281726372600,8.86137255859375,1.2727847243547439,0.23017536780834197,2.9547312643587587
1667508281736419600,8.871419677734375,1.1063631590545178,0.11564882491827011,2.939402177801728
1667508281746466600,8.881466552734375,0.9661392803281545,-0.024303251129388807,3.004865706837177
1667508281756513500,8.891513427734376,0.9821972656816244,-0.24778818138837813,3.140511610123515
1667508281766560500,8.901560546875,1.1161235055685044,-0.4859527943849563,3.2699586587697267
1667508281776608800,8.91160888671875,1.1882061604827643,-0.6224328104078769,3.325613325974345
1667508281786655700,8.92165576171875,1.1375722440496085,-0.7014356199741363,3.355274304744601
1667508281796702700,8.93170263671875,1.0274307843759656,-0.7581658074557781,3.3687668235242363
1667508281806749700,8.941749755859375,0.9558730301186442,-0.8190075219094752,3.3374288514524695
1667508281816796400,8.95179638671875,0.9955208576351403,-0.7898603378802538,3.14259075448513
1667508281826843400,8.961843505859376,1.165500115416944,-0.7771884878337383,2.842569697034359
1667508281836890600,8.971890625,1.3433870775833725,-0.8090349939495325,2.481046999916434
1667508281846938600,8.981938720703125,1.4086448549136519,-0.8222983801484107,2.0957418606728315
1667508281856985600,8.991985595703126,1.4093468657031654,-0.8308388294786214,1.744735296872258
1667508281867032600,9.002032470703124,1.4361214753821492,-0.870012317481637,1.463292683163285
1667508281877079800,9.012079833984375,1.4298305585443973,-0.9487789802044629,1.2804296861499547
1667508281887126800,9.022126708984375,1.4235633148431777,-1.0626835918039084,1.164794889757037
1667508281897173800,9.032173828125,1.547231195566058,-1.1417284869462252,1.0650643494606018
1667508281907220500,9.042220458984374,1.7244082558974623,-1.2335218045026064,0.9522709139734507
1667508281917268500,9.0522685546875,1.8899442705348133,-1.3332979375064373,0.818090407064557
1667508281927315700,9.062315673828126,1.9932032772183417,-1.4823948585182427,0.6072475162357092
1667508281937362700,9.07236279296875,1.9982193518146871,-1.5803022750407456,0.34622634378671646
1667508281947409700,9.08240966796875,1.8770310129478573,-1.507549758040905,0.097245153221488
1667508281957456600,9.09245654296875,1.6828236150994895,-1.3062059324413537,-0.029379823741316792
1667508281967503600,9.102503662109376,1.4526897483453154,-1.0258365009218453,-0.018853169029951093
1667508281977550600,9.112550537109374,1.2552791705414652,-0.685570526844263,0.017449147450923918
1667508281987598600,9.1225986328125,1.214411738102138,-0.3764128077358007,-0.08491817108988761
1667508281997645600,9.1326455078125,1.310905196173489,-0.21259937910735605,-0.38455578218102454
1667508282007692500,9.142692626953124,1.2432251601323485,-0.15616612874567506,-0.8139654360890388
1667508282017739500,9.152739501953125,1.013854678966105,-0.17519114721119403,-1.1535890206098556
1667508282027786500,9.162786376953125,0.7862485771238803,-0.3375830186039209,-1.2866706263661385
1667508282037833700,9.172833740234376,0.6176350547373295,-0.5906166994303464,-1.2120827106326817
1667508282047880700,9.182880615234374,0.39367490818202494,-0.7852835314840078,-1.0440186388224362
1667508282057928400,9.192928466796875,0.17541209648549555,-0.8527432027727365,-0.8641893104165792
1667508282067975400,9.202975341796876,0.026731939581036566,-0.8899807542771101,-0.7643249146074056
1667508282078022700,9.213022705078124,0.05756663830578327,-1.00714056828022,-0.8320780158847569
1667508282088069600,9.223069580078125,0.024499065962433814,-1.198462181559205,-1.0147726705938578
1667508282098116600,9.23311669921875,-0.24001199442893265,-1.410207574185729,-1.261822016313672
1667508282108163600,9.24316357421875,-0.5202139604270458,-1.5753811852514743,-1.5145418088853357
1667508282118210600,9.25321044921875,-0.7773162058666347,-1.6577438266396523,-1.7699200070112944
1667508282128258800,9.2632587890625,-1.0040677367061377,-1.596627971419692,-2.0268577095389366
1667508282138305800,9.273305908203126,-1.2923071709483862,-1.452977625375986,-2.2216887922436
1667508282148352500,9.2833525390625,-1.6153116291016338,-1.2679700175493955,-2.333016831353307
1667508282158399500,9.2933994140625,-1.8637109281256794,-1.0641384667873381,-2.434334348580241
1667508282168446500,9.303446533203125,-2.0317653553247452,-0.8324825050324202,-2.5643442918062207
1667508282178493400,9.313493408203126,-2.1169936152771114,-0.5567448249667882,-2.747617623186111
1667508282188541700,9.323541748046875,-2.0671850437521933,-0.309001651763916,-2.9619571239590643
1667508282198588700,9.333588623046875,-1.9778730216175318,-0.19818740739524363,-3.15227043697834
1667508282208635600,9.3436357421875,-1.8763070825874804,-0.2676315304994583,-3.2822584606334564
1667508282218682600,9.3536826171875,-1.8408675204157827,-0.5020902747154236,-3.319352512013912
1667508282228729600,9.3637294921875,-1.8131129597887397,-0.8740262292981147,-3.2660593132436273
1667508282238776600,9.373776611328125,-1.7597884890973567,-1.317505325090885,-3.1307135619476436
1667508282248823600,9.383823486328126,-1.760457766661048,-1.7634733150899409,-2.93411079339534
1667508282258871600,9.39387158203125,-1.803582038116455,-2.190193583783507,-2.6703850381627676
1667508282268918500,9.40391845703125,-1.8249077347397804,-2.5318062962949273,-2.3601678731292486
1667508282278965800,9.4139658203125,-1.8270704657316206,-2.74623990509212,-2.067118700517714
1667508282289012700,9.4240126953125,-1.8201047183722256,-2.8902199214816093,-1.810475304761529
1667508282299059700,9.434059814453125,-1.8051757370486854,-3.009673983901739,-1.5987296198740601
1667508282309106700,9.444106689453125,-1.7388126288250088,-3.124240858802199,-1.438238613666594
1667508282319154200,9.454154296875,-1.6562117947667836,-3.2151550554364916,-1.337912737825513
1667508282329201400,9.464201416015625,-1.6311054105609655,-3.210529733723402,-1.24737205067873
1667508282339248400,9.474248291015625,-1.6192828708201645,-3.083919954329729,-1.2080381114169954
1667508282349295400,9.48429541015625,-1.6109890897274017,-2.830544912719726,-1.2732049955934286
1667508282359342300,9.49434228515625,-1.5611094987928866,-2.4808354029923674,-1.4629542449891566
1667508282369389300,9.504389404296875,-1.5018495005726813,-2.0506214469641444,-1.72964352620244
1667508282379437600,9.5144375,-1.361165018597245,-1.6204729573875665,-1.904049660515785
1667508282389484300,9.524484375,-1.1843167518287896,-1.2540239097833632,-1.9513433266103266
1667508282399531300,9.53453125,-0.9871355988666415,-0.9167495187371969,-1.9164140520483255
1667508282409578200,9.544578125,-0.7591273459643125,-0.5718003552794456,-1.8614181410133837
1667508282419625200,9.554625244140626,-0.5410936668485403,-0.16176526392698287,-1.846016573742032
1667508282429672200,9.564672119140624,-0.28337504307627676,0.2250631393611431,-1.8736407859876751
1667508282439719400,9.574719482421875,-0.03821282627731561,0.5751368062257767,-1.90300541215986
1667508282449767400,9.584767333984376,0.18996815284341573,0.8415244741439819,-1.893260847736895
1667508282459814400,9.594814453125,0.3749772219747305,1.0227812050044536,-1.8376158251434564
1667508282469861400,9.604861328125,0.545292287582159,1.1623188550323247,-1.7737898341819642
1667508282479908400,9.614908447265625,0.7227665772944688,1.3698814090162514,-1.7540820941492914
1667508282489955300,9.624955322265626,0.869189895182848,1.7526450470834969,-1.8047230248451231
1667508282500002300,9.635002197265624,1.034731462778151,2.3568103793948887,-1.9016735790342092
1667508282510050300,9.64505029296875,1.245031625032425,3.0300223599255083,-1.9717314501225947
1667508282520097300,9.65509716796875,1.45006086114645,3.5952322308987377,-2.003219059798121
1667508282530144500,9.66514453125,1.5076482499793171,3.9530373687982556,-2.0515251178056
1667508282540191500,9.67519140625,1.415834181895852,4.179920709323882,-2.1419377946585416
1667508282550238500,9.685238525390625,1.2633125471323727,4.4311914721310135,-2.2548975266233087
1667508282560285400,9.695285400390626,1.1176380017846823,4.754072596165537,-2.3205209223955867
1667508282570333200,9.705333251953125,1.0294397861108184,5.047422505289316,-2.297575223354995
1667508282580380400,9.71538037109375,1.0120163576230405,5.24284863127768,-2.211222051025927
1667508282590427400,9.725427490234376,1.0373922064200043,5.279748913651704,-2.2286694449111817
1667508282600474400,9.735474365234374,1.1576608000934123,5.159209978604316,-2.501258305557072
1667508282610521300,9.745521240234375,1.2806968126535414,4.856537529861927,-3.1114123568892476
1667508282620568300,9.755568359375,1.3412258078962565,4.352366941741109,-3.985888960303366
1667508282630616300,9.7656162109375,1.3226385963261127,3.830184896111488,-4.848797583259642
1667508282640663300,9.775663330078125,1.327617553782463,3.344387000027299,-5.359869913592934
1667508282650710300,9.785710205078125,1.261723232114315,2.9486610045343635,-5.540623955628275
1667508282660757200,9.79575732421875,0.9841782103657722,2.7189246126651763,-5.332329580238461
1667508282670804200,9.80580419921875,0.5816735145181418,2.558022103047371,-4.71040881100595
1667508282680851500,9.8158515625,0.08928513412773609,2.409928806120157,-3.674040686936676
1667508282690899500,9.8258994140625,-0.378592489862442,2.1299948434084652,-2.4158286778137086
1667508282700946400,9.835946533203124,-0.8787930053085088,1.6326918029695747,-1.3556103070795535
1667508282710993400,9.845993408203125,-1.4085019393116236,0.9621908349633216,-0.8406415538296103
1667508282721040100,9.8560400390625,-1.8585723961934446,0.07609013698995112,-0.8586287536799907
1667508282731087400,9.86608740234375,-2.095099178855121,-1.0507377179443835,-1.173081072065234
1667508282741134300,9.87613427734375,-2.1314751450940967,-2.25137899710834,-1.581717110274732
1667508282751182300,9.886182373046875,-1.8408105295315385,-3.385336265531182,-1.7458169546291231
1667508282761229300,9.896229248046875,-1.3587304849267006,-4.32569462339282,-1.4153461061179637
1667508282771276500,9.906276611328124,-0.8777598628684877,-5.031724000898003,-0.8694336408108473
1667508282781323500,9.916323486328125,-0.5812903604194521,-5.566989399984479,-0.5570312406927347
1667508282791370500,9.92637060546875,-0.41072950335741043,-6.192075939771533,0.049936289557814595
1667508282801417500,9.93641748046875,-0.24820202288627624,-6.85826138266623,0.9133826726526021
1667508282811465200,9.94646533203125,-0.21773352712541819,-7.46643887322843,1.958131379315257
1667508282821512400,9.956512451171875,-0.44972178957462305,-7.845742141708731,3.0465584841847417
1667508282831559400,9.966559326171875,-0.7772694441154598,-8.005012666210531,4.13956590258181
1667508282841606400,9.9766064453125,-0.789177324052155,-8.005922182270885,5.13783109048903
1667508282851653400,9.9866533203125,-0.5494622667431831,-7.834887570217251,5.924643146714568
1667508282861701400,9.996701416015625,-0.28456191477328535,-7.4735034047871824,6.4777434776991605
1667508282871748400,10.006748291015626,0.12620149085372687,-6.932123906734585,6.7371297424227
1667508282881795300,10.01679541015625,0.5594315798327326,-6.304924904838204,6.616884821885824
1667508282891842300,10.02684228515625,0.7312015204235911,-5.4666719997107975,6.08204495473504
1667508282901889300,10.03688916015625,1.1131617331534625,-4.737802429366112,5.311322448045015
1667508282911936300,10.046936279296874,1.469608149920404,-4.181254003754258,4.347966660955548
1667508282921984500,10.056984619140625,1.3643237748891115,-3.617444062706828,3.3258120634168384
1667508282932031500,10.067031494140625,1.3402408885121344,-3.110891547885537,2.4475398671120403
1667508282942078500,10.077078369140626,1.5504402207404375,-2.651589444538951,1.7112544675529002
1667508282952125200,10.087125244140625,2.09774940110296,-2.215595151543617,1.104533021017909
1667508282962172200,10.097172119140625,2.7279560603827235,-1.7022703661084173,0.40307168208062644
1667508282972220400,10.107220458984376,2.6268898875683546,-0.9202858761698007,-0.4554331529587507
1667508282982267400,10.117267333984374,-1.411830206951499,1.4450146836727857,-0.7640870141983032
1667508282992314400,10.127314453125,4.15126043202877,1.911925508457422,0.4121808712095022
1667508283002361300,10.137361328125,2.994632482114434,1.0542612158954143,0.18362404451370237
1667508283012408300,10.147408203125,0.5169406378448009,2.3354770839869974,-1.3339537710666656
1667508283022455600,10.15745556640625,2.8194138623744247,3.3330192183166742,-1.6594570602983236
1667508283032503300,10.16750341796875,0.932463805219531,3.1396903568685053,0.9071633597463369
1667508283042550300,10.17755029296875,1.015260746371746,1.996763015526533,2.9089386504769323
1667508283052597200,10.18759716796875,1.2678230102941392,0.9454103805541991,2.00909701192081
1667508283062644200,10.197644287109375,1.0542688146799801,0.3725584703952074,-0.5084329217404127
1667508283072691500,10.20769140625,0.9231722452610731,0.3995844244867563,-2.591298349705338
1667508283082739500,10.217739501953124,0.8828332206100225,0.7237859834700823,-3.0753759978681803
1667508283092786400,10.227786376953125,1.5512871929585932,0.7755506574988364,-2.77022400726974
1667508283102833200,10.237833251953125,2.3353116642922163,1.0646230354338884,-3.69716934132874
1667508283112880400,10.24788037109375,2.7223972572118043,2.287849655893445,-4.524105902671813
1667508283122927400,10.25792724609375,3.4188515816420315,3.1374142286300657,-3.5639363444030283
1667508283132974300,10.267974365234375,3.946648544543981,2.5740409254342316,-3.160148038485646
1667508283143022300,10.278022216796876,3.326687677207589,2.6212182716727255,-4.102827532771229
1667508283153069300,10.2880693359375,2.2913228849619625,1.4811246924519539,-3.7228473879426716
1667508283163116500,10.298116455078125,1.795275397542119,0.4442646932125091,-3.405468952977657
1667508283173163500,10.30816357421875,1.8256179288357495,0.48711423937976356,-3.750379537990689
1667508283183210500,10.31821044921875,2.3879548747211694,2.1878134106487033,-3.8299534254431724
1667508283193258200,10.32825830078125,2.3649457550555466,3.683977266800403,-3.23765096488297
1667508283203305200,10.33830517578125,2.208712990814447,4.237190410509705,-2.9494033473342656
1667508283213352400,10.3483525390625,2.226162138265371,4.506584859028458,-3.5187446190237996
1667508283223399400,10.3583994140625,2.559121588721871,4.393313284635544,-3.9018502023965116
1667508283233446400,10.3684462890625,2.8701369183957577,4.549152081122994,-3.6811604558140036
1667508283243494400,10.378494384765625,3.5267706890910864,4.728050850680471,-3.3345874905467032
1667508283253541400,10.388541259765624,3.762371589079499,5.18068823544085,-3.3133214151561257
1667508283263588400,10.39858837890625,3.6162235810011625,5.1565574182689184,-3.6268811686158178
1667508283273635300,10.40863525390625,2.5476567763775586,4.06367976373136,-3.9867607747018337
1667508283283682300,10.418682373046876,1.9808622665613889,2.986965893009305,-3.5831834811866283
1667508283293729300,10.428729248046874,1.0591425581961869,3.5762265016555785,-2.037242909952998
1667508283303777500,10.438777587890625,-0.31444179699122904,1.8894646703243254,-0.007542085942625999
1667508283313824500,10.448824462890625,0.7433709739059209,0.46875031517148014,-0.061276598739624016
1667508283323870500,10.458870361328126,-0.5195534506917,0.49116789868474003,0.5134937122613191
1667508283333917700,10.468917724609375,-1.2570669307410716,0.6444535035580397,1.793272241026163
1667508283343964700,10.478964599609375,-0.9540630580872297,0.5566828656464815,2.744309229290485
1667508283354012400,10.489012451171876,-1.0139332971602677,-0.10160685556232929,3.8973783176794647
1667508283364059400,10.499059326171874,-1.3972107299685477,-1.426612181019783,5.149309346836805
1667508283374106400,10.5091064453125,-1.8923118764489888,-3.0519203034788367,6.250571967881918
1667508283384153600,10.519153564453125,-2.507327104076743,-4.302284521710872,6.740939071577787
1667508283394200600,10.52920068359375,-3.3102170194000005,-5.030159820321202,6.725577836316823
1667508283404248600,10.53924853515625,-3.678972005859017,-5.197722956871986,6.348613239917158
1667508283414295600,10.549295654296875,-3.709782154664397,-5.332063622778654,6.413131012535095
1667508283424342500,10.559342529296876,-3.5289304974734783,-5.452982497054339,6.678084263736009
1667508283434389500,10.569389404296874,-3.5396722562402485,-5.445879387050867,6.8274401279449455
1667508283444436500,10.5794365234375,-3.4916426770865914,-5.186383816733956,6.833689835989475
1667508283454483500,10.5894833984375,-3.3146570476740598,-4.5662534380495545,6.79233374325037
1667508283464531500,10.599531494140624,-4.449509803631901,-3.611386662364006,7.341942724987864
1667508283474578700,10.60957861328125,-4.553576911827921,-2.837105001887679,6.822281137746572
1667508283484625700,10.619625732421875,-3.46025735874176,-2.2312264359176157,5.557414346909523
1667508283494672600,10.629672607421876,-3.219667564424872,-1.5937755045980213,4.961826288807392
1667508283504719600,10.6397197265625,-2.5318583187431094,-0.48757718071639533,5.030471370488405
1667508283514767400,10.649767333984375,-0.7943477124273777,0.9579314239531755,4.162303219568729
1667508283524814600,10.659814697265626,0.5182388609617948,2.953863833874464,2.1687308167770505
1667508283534861600,10.669861572265624,1.3542676602989434,5.184755923271179,-0.15875848332643508
1667508283544908500,10.679908447265625,2.5549153692036866,6.706078186076879,-1.8608979165315627
1667508283554955500,10.68995556640625,3.81121423818171,6.930079249164462,-2.485627897965908
1667508283565003500,10.70000341796875,5.066823371329903,7.052257768112421,-2.5072733280628916
1667508283575050500,10.710050537109375,5.7410530044704675,8.018793938803672,-2.2082015341609713
1667508283585097500,10.720097412109375,5.426546325549483,9.311384602868557,-1.818613603031635
1667508283595144400,10.73014453125,4.696171026816964,10.303116005092859,-1.7704197732269762
1667508283605191400,10.74019140625,4.128222086268663,10.28724155961275,-2.1372271327495573
1667508283615238400,10.75023828125,4.054201156768203,9.247143309104443,-2.8473177683442827
1667508283625286700,10.76028662109375,4.733382274836302,7.744450927966833,-3.417358712735772
1667508283635333600,10.770333740234374,5.090996274077892,6.3046864199072115,-3.55380599553287
1667508283645380600,10.780380615234375,5.073458863821625,4.953873283976316,-3.4532734912037846
1667508283655427300,10.79042724609375,5.116790640547872,3.1420982947930693,-3.05752820648849
1667508283665474300,10.800474365234376,3.99102018571198,1.139917638131976,-2.1371710186481474
1667508283675522600,10.8105224609375,-0.0074859718412160865,1.462045313450694,-0.5003577518343926
1667508283685569500,10.820569580078125,0.1046516300857067,2.7920418713241815,-1.7495523417651653
1667508283695616500,10.830616455078125,0.3295481807082891,0.5526946727931499,-1.2714946845442057
1667508283705663500,10.84066357421875,-0.07409925543367862,-0.4555301835924387,0.01925590461194515
1667508283715710700,10.850710693359375,-1.059998298242688,-1.488390299540758,0.8319669567257165
1667508283725758500,10.860758544921875,-1.9424363820552826,-2.6261288400679823,2.028610106164217
1667508283735805400,10.870805419921876,-2.746387204608321,-3.953189636750519,3.737929221740365
1667508283745852400,10.880852294921874,-4.271577248758077,-3.9763483940199014,5.209172571647167
1667508283755899400,10.8908994140625,-4.9312692379802465,-4.030441803257167,5.581679019594192
1667508283765946600,10.900946533203125,-5.057077637863159,-4.950823248755931,5.620679489117861
1667508283775994600,10.91099462890625,-6.166849144056439,-4.385120333568752,4.71512648717761
1667508283786041600,10.92104150390625,-6.026085167104005,-5.018038589894771,3.9901246981769796
1667508283796088600,10.931088623046875,-6.267454129099845,-5.868922428536415,3.8360534958839416
1667508283806135300,10.94113525390625,-7.187628361588716,-5.728264250046014,3.1828438544183966
1667508283816182500,10.9511826171875,-7.101040795981883,-5.683330883342028,2.539377023810148
1667508283826229500,10.9612294921875,-6.7800342336475845,-5.511368050527572,2.0993542059510943
1667508283836277500,10.971277587890626,-6.594134060895443,-4.699976848840714,1.7734271383494138
1667508283846324500,10.981324462890624,-6.182265324375033,-3.79306775611639,1.4196066861718892
1667508283856371700,10.991371826171875,-5.567579182571173,-3.3189673120886085,1.228214345744252
1667508283866418700,11.001418701171875,-4.853507952907681,-3.2312098259195685,0.6813578775852919
1667508283876466400,11.011466552734374,-4.226093846955895,-3.6286408717647194,0.34441900210380555
1667508283886513400,11.021513427734375,-4.27152551857084,-3.7108690731182694,-0.20873568941652773
1667508283896560400,11.031560302734375,-3.6141143337622283,-3.480627069814503,-1.8140397192448376
1667508283906607600,11.041607666015626,-2.491435122939944,-3.1551389781519767,-3.1789217125385996
1667508283916654600,11.051654541015624,-1.3783543460682033,-2.417530805556476,-4.463994256058335
1667508283926701600,11.06170166015625,-1.1957403553798793,-1.9111653377398847,-5.807515481415391
1667508283936749600,11.07174951171875,-1.2301400531098245,-1.3950783941149711,-7.4715499326318495
1667508283946796500,11.081796630859374,-0.7177984334930777,1.1084800050780177,-8.443427464351057
1667508283956843500,11.091843505859375,-0.839674170102179,5.436705900514125,-8.796006392034888
1667508283966890500,11.101890380859375,-0.08316898933500051,7.691901241040229,-7.353150347700715
1667508283976937500,11.1119375,1.2558105009391902,7.439572493612766,-5.029021756201982
1667508283986985500,11.1219853515625,1.9911757169134914,7.316963182032108,-3.9902673215180635
1667508283997032700,11.13203271484375,2.3487542064502835,7.170841477438807,-2.963597292381525
1667508284007079700,11.14207958984375,2.4965444287776943,5.604209415832162,-2.4513234773039816
1667508284017126700,11.152126708984374,2.0443048111632467,4.883509707939624,-2.7538708383619785
1667508284027173600,11.162173583984375,1.2366074955582618,5.699486483851075,-3.250283651962876
1667508284037221400,11.172221435546875,1.624203668348491,5.312467526426911,-4.585025943058729
1667508284047268600,11.1822685546875,1.6701564412280916,3.952365753147006,-5.550322927343845
1667508284057315600,11.192315673828125,1.526165903444588,3.3657065591707824,-5.212480381020903
1667508284067362600,11.202362548828125,1.3196619186028837,3.1215640408083796,-3.97177304892838
1667508284077410600,11.21241064453125,0.8599228851437568,2.6171228190526366,-2.0618156256735323
1667508284087457500,11.22245751953125,0.8864707003295421,2.156691127154231,-0.41454993842840193
1667508284097504500,11.23250439453125,0.7893968120217323,2.479430796891451,1.392070444470644
1667508284107551500,11.242551513671875,1.0467597542241216,2.550371296033263,2.869282347393036
1667508284117598500,11.252598388671874,1.1546768158465623,2.100197378776967,3.765263803389668
1667508284127645400,11.2626455078125,0.9746695005252957,1.624267088973522,4.7027124112844465
1667508284137693400,11.272693359375,0.7424015443518758,0.7111553422167897,6.0436833676368
1667508284147740700,11.28274072265625,0.49021015956848857,-0.5076318344905972,7.435607097113132
1667508284157787600,11.29278759765625,0.23017186067700385,-1.8775982914417981,8.684345759969949
1667508284167834600,11.302834716796875,0.24335984355211257,-2.6766689407378434,9.198964676868915
1667508284177882400,11.31288232421875,0.23553689484149215,-2.4374592026025055,9.05911898380518
1667508284187929600,11.3229296875,-0.1339464058920741,-2.723152459493279,8.749035966545343
1667508284197976600,11.3329765625,-0.44153351468294855,-3.4831115801066157,8.339680089628695
1667508284208023600,11.3430234375,-0.4558227367982268,-3.9870501130372284,7.706784921917319
1667508284218070500,11.353070556640626,-0.9265081116855144,-3.9631887604564424,6.840334096309542
1667508284228118500,11.363118408203125,-1.2336331559225917,-3.6333494878470893,5.494975718653202
1667508284238165500,11.37316552734375,-1.8236203252777456,-3.316377880117297,4.6551299913764
1667508284248212500,11.38321240234375,-1.937155519042909,-3.2257389932930467,4.518263021862507
1667508284258259500,11.393259521484374,-1.0029986461699008,-2.959984947103262,4.791007365331054
1667508284268306400,11.403306396484375,-0.10735592060834169,-2.9453397511571646,4.429421539849042
1667508284278354400,11.4133544921875,0.48195437239855526,-2.3933552724599836,3.09093070987463
1667508284288401700,11.423401611328124,1.029421665932238,-0.9021385173216462,1.3660194728910922
1667508284298448600,11.43344873046875,1.1917083233848214,0.5685813932329415,-0.6890145298182964
1667508284308495600,11.44349560546875,0.4764850010767579,2.8390952989220617,-3.056086775508523
1667508284318542600,11.45354248046875,-0.21513561958670616,5.703506240886449,-5.367675034385919
1667508284328590800,11.4635908203125,-0.4467456963732838,7.381695474183559,-6.493716707378625
1667508284338637800,11.473637939453125,0.6237187585651874,7.884616354504227,-6.185391931962966
1667508284348684800,11.483684814453126,1.881623016913235,7.775773117947578,-5.221783046895265
1667508284358731800,11.493731689453124,2.5743954379603267,7.427470552408694,-4.758350711876154
1667508284368778800,11.50377880859375,2.937024635015428,6.8199255145311355,-4.858135028186441
1667508284378826800,11.51382666015625,2.918965246711671,6.727609634405374,-5.253228570994734
1667508284388873700,11.523873779296874,2.5033853807136417,7.177485737758874,-5.2653498014211655
1667508284398920700,11.533920654296875,1.0737366084769369,7.296205056163668,-4.414335614398121
1667508284408967700,11.5439677734375,-1.438182499565184,6.705197311589122,-3.0219068580090998
1667508284419016000,11.554015869140626,-0.5235495345905423,5.960757831668853,-1.2595195845901965
1667508284429063000,11.56406298828125,-0.5282441221475601,6.316501945385337,0.16463292831778525
1667508284439110000,11.57410986328125,1.687539537705481,6.410035384607315,-0.029870822128653524
1667508284449156900,11.584156982421876,2.769798183073103,7.645209047970175,-2.6384868018597363
1667508284459203800,11.594203857421874,1.2427101963475347,6.492056665211916,-3.956291986680031
1667508284469251800,11.604251953125,-2.717716698180139,3.921680692026019,-2.702548647403717
1667508284479298800,11.614298828125,0.9394377358853816,1.8609411711513995,-2.220759986960888
1667508284489345800,11.624345703125,3.7200755851417777,3.6058348734557626,-2.398188683965802
1667508284499392800,11.634392822265625,1.38330290838629,2.124889336962998,-1.2542244007915258
1667508284509440800,11.644440673828125,0.3280830765917897,-0.22802637308090923,1.1883920384436846
1667508284519487700,11.65448779296875,0.14461056937798858,-1.319169166649878,3.143857413420081
1667508284529534700,11.66453466796875,0.2697840323582291,-2.0424825641721487,4.1866123159170145
1667508284539581700,11.674581787109375,0.1788788958132267,-2.78801568454802,4.799363690266013
1667508284549629700,11.684629638671876,0.043145752634853124,-3.2774668424427507,5.507351216101646
1667508284559677000,11.694677001953124,-0.14253449375629423,-3.584538402926922,6.380134751862287
1667508284569724000,11.704723876953125,-0.2915735471010208,-3.7553324842229485,7.265516487911343
1667508284579771000,11.71477099609375,-0.32899142360836264,-3.852658301465213,8.053606893509626
1667508284589817900,11.72481787109375,-0.26871158082112667,-3.961748498520255,8.65120336882472
1667508284599865600,11.734865478515625,-0.18619367580600082,-4.099417432066798,9.054946082034707
1667508284609912800,11.744912841796875,-0.15456526942029594,-4.284752079890668,9.28142551793456
1667508284619959800,11.754959716796876,-0.21238252148628234,-4.517770269909501,9.302771672824024
1667508284630006800,11.7650068359375,-0.3452679470833391,-4.713649108101428,9.072587537187337
1667508284640054800,11.7750546875,-0.5030066589079797,-4.822807986478507,8.5960928914994
1667508284650101800,11.785101806640625,-0.6420996339082717,-4.92772002106607,7.8468270143359895
1667508284660148700,11.795148681640624,-0.7847276511669159,-5.0072559145957225,6.904343334883451
1667508284670195700,11.80519580078125,-0.9053073566161095,-5.154479442951083,5.977991290542483
1667508284680243700,11.81524365234375,-0.9704618197023868,-5.435441579666733,5.124930107861757
1667508284690290700,11.825290771484376,-1.0577984501108526,-5.8137821405947205,4.17554322489202
1667508284700338000,11.835337890625,-1.36188339599967,-6.104737263536453,2.8167420128166674
1667508284710385000,11.845385009765625,-1.8395652056455611,-6.040238780140877,0.749428374248743
1667508284720432600,11.8554326171875,-2.2980071850314734,-5.302748096445202,-2.339858660072088
1667508284730479600,11.865479736328124,-2.529391928629577,-3.5550434283733368,-5.886115555399656
1667508284740526600,11.875526611328125,-2.2976705004230142,-0.9499281502395868,-8.77250510493815
1667508284750573800,11.88557373046875,-1.6695967615187166,1.7825433417409657,-11.039575007653236
1667508284760621800,11.895621826171874,-1.038539915150404,3.768050219237804,-13.24027420336008
1667508284770668800,11.905668701171875,-0.5135395972296595,4.692296815732121,-15.073973147320746
1667508284780715800,11.9157158203125,-0.16337036103606223,4.642200659437477,-15.167414816606044
1667508284790762800,11.9257626953125,0.014334814822673797,4.410203336898983,-13.74365977858305
1667508284800810800,11.935810791015625,-0.10271423228234051,4.51154218917489,-12.070302203226088
1667508284810857700,11.945857666015625,-0.3906394860088825,4.716185348580777,-10.578166287416218
1667508284820904700,11.95590478515625,-0.6798258457124233,4.99554852566719,-9.29843452040255
1667508284830951700,11.96595166015625,-0.8615668529585003,5.130855990779399,-8.050271027085184
1667508284841000000,11.976,-0.8073875190034508,4.931721073400974,-6.842585090106725
1667508284851047000,11.986046875,-0.6650804042622447,4.443695272134244,-5.71430411375463
1667508284861093600,11.99609375,-0.7252204001873731,3.8268174655050036,-4.639810841691494
1667508284871140600,12.006140625,-0.8812336764588952,3.2022628406375646,-3.6739340116918084
1667508284881187600,12.0161875,-0.9512909630253911,2.5453818171828986,-2.838850384250283
1667508284891235800,12.02623583984375,-0.9872378901973367,1.8034926062673329,-2.0891700810670852
1667508284901282800,12.03628271484375,-0.9726236739113926,1.0790741701126099,-1.3908528853744269
1667508284911329800,12.046329833984375,-0.9613260348275303,0.4157406095176935,-0.7197247253805399
1667508284921376800,12.056376708984375,-0.9644216627553105,-0.18749650203287602,-0.05265840799808502
1667508284931424800,12.0664248046875,-0.968206734251976,-0.7641945662260055,0.6507645864009857
1667508284941471700,12.0764716796875,-0.9679591892316937,-1.3270967447787523,1.4191998589366674
1667508284951518700,12.086518798828125,-0.9739587219074368,-1.8508640137732029,2.2333786455154416
1667508284961565700,12.096565673828126,-0.960261912727356,-2.329084168079495,3.0206518895119427
1667508284971614000,12.106614013671875,-0.9328861222848296,-2.7357126658588644,3.735450264406204
1667508284981661000,12.116660888671875,-0.9761348969027399,-3.0487282294392584,4.347912300419807
1667508284991708000,12.1267080078125,-1.1373659078225493,-3.2496745801538225,4.836143561130762
1667508285001755000,12.1367548828125,-1.3754127396583555,-3.346322352004051,5.225005516073107
1667508285011802600,12.146802734375,-1.5912968395248055,-3.377164064991474,5.558150844490528
1667508285021849900,12.156849853515626,-1.7350354483738542,-3.4022897384196518,5.9219023235738275
1667508285031896800,12.166896728515624,-1.7779317562922834,-3.3660487967371937,6.285746741637587
1667508285041943800,12.17694384765625,-1.7864271974369883,-3.225188373672962,6.610989334106445
1667508285051991800,12.18699169921875,-1.92968445250988,-3.0001246497899294,6.85954791534543
1667508285062038800,12.197038818359376,-2.0815321335345507,-2.714440160727501,7.052676285785436
1667508285072085800,12.207085693359375,-2.281939555066824,-2.39449976631999,7.151095743483305
1667508285082132700,12.2171328125,-2.447326516622305,-1.9773317543476818,7.142551787021755
1667508285092180700,12.2271806640625,-2.4468194438830015,-1.3870453097850084,7.0682415191859
1667508285102227700,12.237227783203124,-2.330054474416375,-0.619989508908987,6.854378988274932
1667508285112275000,12.24727490234375,-2.251433357644081,0.32746114530116316,6.431364588361978
1667508285122322000,12.257322021484375,-2.226497653830051,1.3729974952101707,5.8168982267886395
1667508285132369700,12.26736962890625,-2.1900234879136082,2.454798752199113,4.991272748044133
1667508285142416600,12.277416748046875,-2.3030507321566343,3.6746088422134515,3.848935773810744
1667508285152463600,12.287463623046875,-2.7654163147270676,5.075603474634885,2.2535896588951347
1667508285162510800,12.2975107421875,-3.651670449696481,6.369174966430664,0.23770517879128455
1667508285172558800,12.307558837890625,-3.9857352310463785,7.108525014257431,-2.0773124700129033
1667508285182605800,12.317605712890625,-3.1731314386993645,7.3744626003205775,-4.40001599714458
1667508285192652800,12.32765283203125,-1.2433113771110773,8.155181600368023,-5.766614146706462
1667508285202699800,12.33769970703125,0.43065527005493637,9.562006546378136,-6.121924545180797
1667508285212747800,12.347747802734375,1.0710919391870497,10.236538961857557,-6.017841654893756
1667508285222794800,12.357794677734375,1.2400026909545063,9.355769688040018,-4.866703534567356
1667508285232841700,12.367841796875,1.2090256611496208,8.414061669135092,-3.107113198390603
1667508285242888700,12.377888671875,1.171225799587369,7.983710934984684,-0.9392734852343797
1667508285252937000,12.38793701171875,1.2638631667524576,7.898517454084754,1.0569430023252964
1667508285262983700,12.397983642578126,1.4316510519698262,8.035686621415614,2.549586283135414
1667508285273030700,12.40803076171875,1.590323902839422,8.240598953151702,3.5438737995833156
1667508285283078700,12.41807861328125,1.8085735627934336,8.215101523801684,4.144477640020847
1667508285293126000,12.4281259765625,2.088642550061643,7.8732900738477705,4.297679073742032
1667508285303172900,12.4381728515625,2.2595333697304127,7.37613550196886,3.8579561156123874
1667508285313219800,12.4482197265625,2.2504627590462563,7.029585333055257,2.9979198332220314
1667508285323268000,12.45826806640625,2.2486837666749953,6.882255421715975,1.9726082329571246
1667508285333315000,12.468315185546874,2.3419930417522785,6.77573507514894,0.9892004224419593
1667508285343362000,12.478362060546875,2.4004165891483424,6.4677943306148045,0.27918519017100335
1667508285353409000,12.488408935546875,2.504251642154157,5.996988836479186,-0.20991116293668746
1667508285363457300,12.498457275390624,2.7392545762494205,5.19103894906342,-0.6030266836702823
1667508285373504300,12.508504150390625,3.000016220979392,4.1633582815796135,-1.0734148291766643
1667508285383551200,12.51855126953125,3.083541476406157,3.290663008624315,-1.4850059177994728
1667508285393598000,12.528597900390626,3.061515230298042,2.6364678632527587,-1.4569067815184593
1667508285403646000,12.53864599609375,3.0824525121256707,2.301468431401253,-1.010120460873842
1667508285413693200,12.548693115234375,3.0808845321565865,2.1817466579556464,-0.39734745921492576
1667508285423740200,12.558740234375,2.975087823688984,2.094016936576366,0.016195347997546194
1667508285433787100,12.568787109375,2.6973271133631465,2.0730933910131455,-0.0038578444719314575
1667508285443835100,12.578835205078125,2.2213106065809725,2.0168711530536414,-0.47846156184673305
1667508285453882000,12.588882080078125,1.7147805958524345,1.8668547791093586,-1.2295558234810828
1667508285463929000,12.59892919921875,1.3850675799712537,1.6260925508350133,-1.9901304456442592
1667508285473976000,12.60897607421875,1.2285700273141265,1.2512702271610499,-2.5213223116815087
1667508285484024000,12.619024169921875,1.1826514489650726,0.6440414156258106,-2.5522201387703416
1667508285494071000,12.629071044921876,1.1891411032453179,-0.0425467638283968,-2.066245717075467
1667508285504118300,12.6391181640625,1.1126780412897468,-0.6693669955402612,-1.226769407632947
1667508285514165200,12.649165283203125,0.9179624016582966,-1.225696809965372,-0.3546241697758436
1667508285524213000,12.659212890625,0.6506222553208469,-1.7672884894639254,0.41446576727628703
1667508285534260000,12.669260009765624,0.38482933842539785,-2.2789374506413935,0.9988403574466704
1667508285544307000,12.679306884765625,0.09972644864320754,-2.6900223433077333,1.3287766606897116
1667508285554354200,12.689354248046875,-0.21523557282984254,-3.057392012888193,1.5068459936857224
1667508285564402200,12.699402099609374,-0.3621886136807501,-3.4897996795684096,1.6559546051353216
1667508285574449200,12.70944921875,-0.3001622194871306,-4.0086142945915455,1.9245090956985949
1667508285584496000,12.71949609375,-0.11188684203624724,-4.611065224200487,2.3168413571000097
1667508285594544000,12.729544189453126,0.11249226058349013,-5.265518728247285,2.7644495155215263
1667508285604591000,12.739591064453125,0.35108021355867386,-5.9181859333992,3.2244898700147866
