time,seconds_elapsed,z,y,x
1667508272884942800,0.01994287109375,-0.027253976091742516,0.007357588037848473,-0.02363530360162258
1667508272894990000,0.029989990234375,-0.022158244624733925,-0.004722820594906807,-0.02272426150739193
1667508272905036800,0.040036865234375,-0.013930410146713257,-0.0037164122331887484,-0.024335741996765137
1667508272915083800,0.050083740234375,-0.014430535025894642,-0.022536950185894966,-0.017309755086898804
1667508272925130800,0.060130859375,-0.02479369379580021,-0.04241718351840973,-0.0125075438991189
1667508272935177700,0.070177734375,-0.022587453946471214,-0.06333640217781067,-0.011144855059683323
1667508272945224700,0.080224609375,-0.01683742366731167,-0.08056226372718811,-0.01088652852922678
1667508272955272000,0.09027197265625,-0.02151707001030445,-0.10244689136743546,-0.013860564678907394
1667508272965319000,0.10031884765625,-0.027570167556405067,-0.13183434307575226,-0.010488735511898994
1667508272975366000,0.110365966796875,-0.03231704607605934,-0.1421089768409729,-0.01041328627616167
1667508272985412900,0.120412841796875,-0.0351429283618927,-0.13601699471473694,-0.018847517669200897
1667508272995459800,0.1304599609375,-0.029315494000911713,-0.12427820265293121,-0.028688229620456696
1667508273005506800,0.1405068359375,-0.025546321645379066,-0.12073539942502975,-0.029114868491888046
1667508273015554000,0.150553955078125,-0.019062589854002,-0.12577489018440247,-0.022199971601366997
1667508273025601000,0.16060107421875,-0.015211658552289009,-0.11236774921417236,-0.02149423398077488
1667508273035647700,0.170647705078125,0.0005170723889023066,-0.10552069544792175,-0.026688218116760254
1667508273045695700,0.18069580078125,0.004756292328238487,-0.10318004339933395,-0.03783674165606499
1667508273055742700,0.19074267578125,-0.0010965208057314157,-0.1107412651181221,-0.03897414728999138
1667508273065790000,0.2007900390625,-0.011749165132641792,-0.12212041765451431,-0.04303093999624252
1667508273075837000,0.2108369140625,-0.018251430243253708,-0.1265876591205597,-0.054498493671417236
1667508273085884000,0.2208837890625,-0.030747514218091965,-0.1319134533405304,-0.06289277970790863
1667508273095931000,0.230930908203125,-0.04207022860646248,-0.11991725862026215,-0.07369592785835266
1667508273105977900,0.240977783203125,-0.040479786694049835,-0.10763662308454514,-0.08225612342357635
1667508273116025000,0.251025146484375,-0.03614594787359238,-0.09540507197380066,-0.0920635387301445
1667508273126071800,0.26107177734375,-0.0391654409468174,-0.08697962760925293,-0.09405344724655151
1667508273136118800,0.271118896484375,-0.04380940645933151,-0.09019191563129425,-0.08067113906145096
1667508273146165800,0.281165771484375,-0.052612487226724625,-0.10038968920707703,-0.07202811539173126
1667508273156212700,0.291212646484375,-0.0526578314602375,-0.09684235602617264,-0.0713312104344368
1667508273166259700,0.301259765625,-0.05660969763994217,-0.08186180889606476,-0.06876152753829956
1667508273176307000,0.311306884765625,-0.06249039247632027,-0.06687205284833908,-0.0731242448091507
1667508273186354000,0.32135400390625,-0.07005350291728973,-0.057705990970134735,-0.07544466108083725
1667508273196401000,0.33140087890625,-0.05802562087774277,-0.048072781413793564,-0.08376982063055038
1667508273206447900,0.34144775390625,-0.049774084240198135,-0.03083440475165844,-0.08572298288345337
1667508273216494800,0.351494873046875,-0.03678065538406372,-0.01812058500945568,-0.08331579715013504
1667508273226541800,0.361541748046875,-0.02847345732152462,-0.003970944322645664,-0.081898994743824
1667508273236589000,0.371589111328125,0.0006443681195378304,0.011308232322335243,-0.08605282753705978
1667508273246636000,0.381635986328125,0.02696332335472107,0.02981933392584324,-0.09077887237071991
1667508273256682800,0.391682861328125,0.03900221735239029,0.03221932798624039,-0.08963519334793091
1667508273266729700,0.401729736328125,0.06005930155515671,-0.04344054311513901,-0.08520662039518356
1667508273276776700,0.411776611328125,0.07042238861322403,-0.12099552154541016,-0.08689349889755249
1667508273286823700,0.42182373046875,0.04221391677856445,-0.12242963165044785,-0.10160080343484879
1667508273296871000,0.431870849609375,0.027382373809814453,-0.22981692850589752,-0.09548836946487427
1667508273306918000,0.44191796875,0.020700769498944283,-0.2637717127799988,-0.08174938708543777
1667508273316965400,0.45196533203125,0.02604888752102852,-0.3228144347667694,-0.09063056111335754
1667508273327012400,0.462012451171875,0.02989795245230198,-0.31597596406936646,-0.09486524760723114
1667508273337059600,0.4720595703125,0.051062993705272675,-0.2386232614517212,-0.10733746737241745
1667508273347106600,0.4821064453125,0.051337830722332,-0.2704097032546997,-0.10844561457633972
1667508273357153500,0.492153564453125,0.058063313364982605,-0.35975566506385803,-0.09180644899606705
1667508273367200300,0.5022001953125,0.1317681521177292,-0.43307968974113464,-0.04611939191818237
1667508273377247200,0.512247314453125,0.11655505001544952,-0.4634799361228943,-0.051766667515039444
1667508273387294200,0.522294189453125,0.07051538676023483,-0.4627222716808319,-0.09721110761165619
1667508273397341400,0.532341552734375,0.07395954430103302,-0.45327991247177124,-0.1259525865316391
1667508273407388400,0.542388427734375,0.11497994512319565,-0.4390026926994324,-0.1545373499393463
1667508273417435400,0.552435302734375,0.15331880748271942,-0.45643121004104614,-0.18834573030471802
1667508273427482400,0.562482421875,0.16555389761924744,-0.5294130444526672,-0.20754127204418182
1667508273437529300,0.572529296875,0.1726192682981491,-0.5535181164741516,-0.17877504229545593
1667508273447576300,0.582576416015625,0.1222144216299057,-0.5545399785041809,-0.15395119786262512
1667508273457623600,0.59262353515625,0.08572306483983994,-0.5947239398956299,-0.14625205099582672
1667508273467670500,0.60267041015625,0.09301160275936127,-0.6834484934806824,-0.11006581038236618
1667508273477717500,0.612717529296875,0.13214409351348877,-0.7937342524528503,-0.08555594086647034
1667508273487764500,0.622764404296875,0.17031197249889374,-0.8580778241157532,-0.09754975140094757
1667508273497811200,0.632811279296875,0.17875009775161743,-0.8479861617088318,-0.07778872549533844
1667508273507858400,0.6428583984375,0.17956049740314484,-0.8550528287887573,-0.029256077483296394
1667508273517905400,0.652905517578125,0.19595274329185486,-0.9213995933532715,-0.031003912910819054
1667508273527952400,0.662952392578125,0.2041693925857544,-0.9540771245956421,-0.0648881122469902
1667508273537999400,0.672999267578125,0.20719611644744873,-0.9410356879234314,-0.08759291470050812
1667508273548046300,0.68304638671875,0.20559662580490112,-0.9575933814048767,-0.0917852595448494
1667508273558094600,0.693094482421875,0.20493413507938385,-1.0066978931427002,-0.10027416050434113
1667508273568141600,0.7031416015625,0.18273748457431793,-1.0739060640335083,-0.1021018922328949
1667508273578188500,0.7131884765625,0.1681164652109146,-1.1737791299819946,-0.1078718975186348
1667508273588235300,0.7232353515625,0.1581922024488449,-1.2575962543487549,-0.1014866977930069
1667508273598282200,0.7332822265625,0.17012488842010498,-1.296642541885376,-0.08019454032182693
1667508273608329200,0.7433291015625,0.18746446073055267,-1.3449357748031616,-0.05372964218258858
1667508273618376400,0.75337646484375,0.19234801828861237,-1.4136680364608765,-0.029575884342193604
1667508273628423400,0.76342333984375,0.1983390748500824,-1.540955662727356,-0.011438422836363316
1667508273638470400,0.773470458984375,0.2000245898962021,-1.7331246137619019,-0.010295660234987736
1667508273648517400,0.783517333984375,0.1882627308368683,-1.9469399452209473,0.0009308946318924427
1667508273658564400,0.793564453125,0.1576848179101944,-2.1141695976257324,0.04047726094722748
1667508273668611300,0.803611328125,0.11240468174219131,-2.1747798919677734,0.07733461260795593
1667508273678658600,0.813658447265625,0.07624149322509766,-2.1426358222961426,0.10204017907381058
1667508273688705500,0.82370556640625,0.07611419260501862,-2.04300594329834,0.11970093101263046
1667508273698752500,0.83375244140625,0.10412343591451645,-1.9732739925384521,0.16190658509731293
1667508273708799500,0.843799560546875,0.14565730094909668,-2.002501964569092,0.230697363615036
1667508273718846200,0.85384619140625,0.1749579906463623,-2.1312313079833984,0.319516122341156
1667508273728893400,0.8638935546875,0.11795541644096375,-2.3409600257873535,0.42620688676834106
1667508273738940400,0.8739404296875,0.03578522056341171,-2.607330083847046,0.517090380191803
1667508273748987400,0.8839873046875,0.0030349986627697945,-2.867281913757324,0.6384423971176147
1667508273759034400,0.894034423828125,0.005196204409003258,-3.0432729721069336,0.8232817053794861
1667508273769081300,0.904081298828125,0.04024260491132736,-3.2132577896118164,1.0884156227111816
1667508273779128300,0.91412841796875,0.13378578424453735,-3.3496768474578857,1.3805322647094727
1667508273789175600,0.924175537109375,0.2060333490371704,-3.5573129653930664,1.6652774810791016
1667508273799222500,0.934222412109375,0.20146216452121735,-3.7594292163848877,1.9705958366394043
1667508273809269500,0.94426953125,0.11629560589790344,-3.932133674621582,2.2796316146850586
1667508273819316500,0.95431640625,0.011556126177310944,-4.016331672668457,2.5426743030548096
1667508273829363500,0.964363525390625,-0.03652964532375336,-3.760465621948242,2.586007595062256
1667508273839410400,0.974410400390625,-0.09191460907459259,-3.424670696258545,2.5183608531951904
1667508273849457400,0.98445751953125,-0.15376998484134674,-3.062129497528076,2.478559970855713
1667508273859504400,0.99450439453125,-0.37510088086128235,-2.5558483600616455,2.286353826522827
1667508273869551400,1.00455126953125,-0.6388765573501587,-2.1115362644195557,1.9024642705917358
1667508273879598300,1.014598388671875,-0.7436794638633728,-1.773850440979004,1.3661218881607056
1667508273889645300,1.024645263671875,-0.8032056093215942,-1.6685702800750732,1.0020947456359863
1667508273899692300,1.0346923828125,-0.7870690226554871,-1.5631831884384155,0.8595603108406067
1667508273909739500,1.044739501953125,-0.739776611328125,-1.4012656211853027,0.7320428490638733
1667508273919787500,1.05478759765625,-0.7423457503318787,-1.3127752542495728,0.6672146320343018
1667508273929834200,1.064834228515625,-0.7347556948661804,-1.281165361404419,0.6536958813667297
1667508273939881200,1.074881103515625,-0.7778030633926392,-1.2396501302719116,0.6522243022918701
1667508273949928200,1.08492822265625,-0.8709700107574463,-1.2529563903808594,0.567882239818573
1667508273959975400,1.094975341796875,-0.9321673512458801,-1.2986719608306885,0.42419734597206116
1667508273970022400,1.1050224609375,-0.9289020299911499,-1.3505152463912964,0.2508718967437744
1667508273980069400,1.1150693359375,-0.929017186164856,-1.4024808406829834,0.08492718636989594
1667508273990116400,1.125116455078125,-1.0005533695220947,-1.4187252521514893,0.01744960993528366
1667508274000163300,1.135163330078125,-1.1571192741394043,-1.5321866273880005,0.08250448852777481
1667508274010210600,1.14521044921875,-1.3448904752731323,-1.6105623245239258,0.16290292143821716
1667508274020257500,1.155257568359375,-1.5131003856658936,-1.5493155717849731,0.21179039776325226
1667508274030304500,1.165304443359375,-1.5954521894454956,-1.33159339427948,0.2672557830810547
1667508274040351500,1.1753515625,-1.6092395782470703,-1.0221185684204102,0.3069581091403961
1667508274050398500,1.1853984375,-1.6406539678573608,-0.8061516284942627,0.30880606174468994
1667508274060445200,1.195445068359375,-1.738166332244873,-0.7282305359840393,0.21931543946266174
1667508274070492400,1.205492431640625,-1.8828260898590088,-0.7994373440742493,0.03244037553668022
1667508274080539400,1.215539306640625,-1.9850565195083618,-1.1638660430908203,-0.18342098593711853
1667508274090586400,1.22558642578125,-2.1049344539642334,-1.6593776941299438,-0.38730114698410034
1667508274100633300,1.23563330078125,-2.2922356128692627,-2.0124423503875732,-0.5294348001480103
1667508274110680300,1.245680419921875,-2.47566294670105,-2.170072555541992,-0.6186245679855347
1667508274120727300,1.255727294921875,-2.625455617904663,-2.098374843597412,-0.6636716723442078
1667508274130774500,1.2657744140625,-2.7889511585235596,-1.845630168914795,-0.6967512965202332
1667508274140821500,1.275821533203125,-2.97245192527771,-1.6077507734298706,-0.7822554707527161
1667508274150868500,1.285868408203125,-3.1942057609558105,-1.5876586437225342,-0.8832084536552429
1667508274160915500,1.29591552734375,-3.430401086807251,-1.7768874168395996,-1.0114855766296387
1667508274170962400,1.30596240234375,-3.6534578800201416,-2.1074159145355225,-1.1538301706314087
1667508274181009400,1.316009521484375,-3.9071853160858154,-2.2384660243988037,-1.160051703453064
1667508274191056400,1.326056396484375,-4.247225284576416,-2.2162046432495117,-1.1288906335830688
1667508274201103400,1.336103271484375,-4.461928844451904,-2.0836546421051025,-1.2321202754974365
1667508274211151400,1.3461513671875,-4.510423183441162,-1.9099255800247192,-1.4190539121627808
1667508274221198300,1.3561982421875,-4.5963134765625,-1.8347872495651245,-1.6207436323165894
1667508274231245600,1.36624560546875,-4.811368942260742,-1.9711484909057617,-1.769690752029419
1667508274241292500,1.37629248046875,-5.024661540985107,-2.2177789211273193,-1.8938381671905518
1667508274251339500,1.386339599609375,-5.1016764640808105,-2.4345037937164307,-2.0036652088165283
1667508274261386500,1.396386474609375,-5.1271514892578125,-2.4951703548431396,-2.1165571212768555
1667508274271433500,1.40643359375,-5.204887390136719,-2.4305295944213867,-2.1875205039978027
1667508274281480200,1.416480224609375,-5.337958812713623,-2.361828565597534,-2.213447332382202
1667508274291527400,1.42652734375,-5.493186950683594,-2.368779182434082,-2.240372657775879
1667508274301574400,1.436574462890625,-5.621670722961426,-2.4178686141967773,-2.2596259117126465
1667508274311620900,1.446620849609375,-5.706688404083252,-2.4456889629364014,-2.278172016143799
1667508274321667800,1.456667724609375,-5.782690525054932,-2.4391069412231445,-2.303497076034546
1667508274331714800,1.46671484375,-5.840478897094727,-2.3852643966674805,-2.320178985595703
1667508274341762000,1.476761962890625,-5.884917736053467,-2.331209659576416,-2.3524229526519775
1667508274351809000,1.48680908203125,-5.8685078620910645,-2.2956535816192627,-2.3778600692749023
1667508274361856000,1.49685595703125,-5.784764289855957,-2.281776189804077,-2.3740429878234863
1667508274371903000,1.506903076171875,-5.690635681152344,-2.308776617050171,-2.3677642345428467
1667508274381950000,1.516949951171875,-5.593519687652588,-2.341127395629883,-2.3066654205322266
1667508274391997200,1.5269970703125,-5.475687026977539,-2.3237130641937256,-2.2000842094421387
1667508274402044200,1.537044189453125,-5.309323787689209,-2.2538394927978516,-2.086796998977661
1667508274412091100,1.547091064453125,-5.106926918029785,-2.173804759979248,-1.9520379304885864
1667508274422137900,1.557137939453125,-4.905165195465088,-2.0919277667999268,-1.8171206712722778
1667508274432184800,1.567184814453125,-4.705835819244385,-2.0388386249542236,-1.7127645015716553
1667508274442231800,1.577231689453125,-4.4948296546936035,-2.031581163406372,-1.6154676675796509
1667508274452279000,1.587279052734375,-4.284751892089844,-1.973848581314087,-1.5075268745422363
1667508274462326000,1.597325927734375,-4.068271160125732,-1.8356671333312988,-1.400452971458435
1667508274472373000,1.607373046875,-3.8315021991729736,-1.63960599899292,-1.311772346496582
1667508274482421000,1.6174208984375,-3.5815229415893555,-1.4324947595596313,-1.236351490020752
1667508274492468000,1.627468017578125,-3.3191373348236084,-1.2277395725250244,-1.132096767425537
1667508274502515200,1.63751513671875,-3.060375213623047,-1.0644563436508179,-1.0400511026382446
1667508274512562000,1.64756201171875,-2.815176010131836,-0.9506958723068237,-0.955302894115448
1667508274522609000,1.65760888671875,-2.5838987827301025,-0.8967389464378357,-0.8698000907897949
1667508274532655900,1.66765576171875,-2.3612098693847656,-0.8233374357223511,-0.7823482751846313
1667508274542702800,1.677702880859375,-2.1394248008728027,-0.6933683753013611,-0.7101112604141235
1667508274552749800,1.687749755859375,-1.948616623878479,-0.5349398255348206,-0.6335488557815552
1667508274562797000,1.697797119140625,-1.7560489177703857,-0.34758344292640686,-0.5467226505279541
1667508274572844000,1.707843994140625,-1.5422579050064087,-0.12162354588508606,-0.44536837935447693
1667508274582891000,1.71789111328125,-1.3067644834518433,0.08605543524026871,-0.3300122916698456
1667508274592938000,1.72793798828125,-1.0618904829025269,0.27653804421424866,-0.2120925784111023
1667508274602985000,1.73798486328125,-0.8344485759735107,0.4041050672531128,-0.10276102274656296
1667508274613032000,1.748031982421875,-0.6520726680755615,0.4418061077594757,-0.016390981152653694
1667508274623079200,1.7580791015625,-0.5065048933029175,0.408664345741272,0.06586168706417084
1667508274633126100,1.768126220703125,-0.3777911365032196,0.3125857710838318,0.10768343508243561
1667508274643172900,1.7781728515625,-0.23038536310195923,0.21214205026626587,0.10106054693460464
1667508274653219800,1.7882197265625,-0.06101924180984497,0.19427995383739471,0.0732310488820076
1667508274663266800,1.798266845703125,0.12393660098314285,0.28729820251464844,0.07494781911373138
1667508274673314000,1.80831396484375,0.3346094489097595,0.4403783082962036,0.08806867897510529
1667508274683361000,1.818361083984375,0.5508224368095398,0.6285426020622253,0.09254823625087738
1667508274693408000,1.828407958984375,0.7509177327156067,0.7787763476371765,0.09872251003980637
1667508274703455000,1.838455078125,0.9307532906532288,0.8126016855239868,0.0732608437538147
1667508274713502000,1.848501953125,1.1144933700561523,0.7024237513542175,-0.00064107496291399
1667508274723550200,1.85855029296875,1.3157404661178589,0.4942523241043091,-0.07654669880867004
1667508274733597000,1.868596923828125,1.5026274919509888,0.26880112290382385,-0.16161926090717316
1667508274743644000,1.878643798828125,1.7039098739624023,0.14588184654712677,-0.27963149547576904
1667508274753691000,1.88869091796875,2.0249946117401123,0.12201353162527084,-0.3654577136039734
1667508274763737900,1.89873779296875,2.6157116889953613,0.3333473801612854,-0.36267736554145813
1667508274773784800,1.908784912109375,3.509153366088867,0.9467127919197083,-0.41026031970977783
1667508274783832000,1.91883203125,4.493407249450684,1.7828381061553955,-0.6348142027854919
1667508274793879000,1.928879150390625,5.549787998199463,2.37249493598938,-0.9975823163986206
1667508274803926000,1.938926025390625,6.6930084228515625,1.7936372756958008,-1.1748994588851929
1667508274813973000,1.948972900390625,7.484708786010742,-0.20822793245315552,-1.0291860103607178
1667508274824020000,1.95902001953125,7.297872543334961,-2.4245388507843018,-0.7946930527687073
1667508274834067000,1.96906689453125,7.0745015144348145,-4.16848611831665,-1.3487519025802612
1667508274844114200,1.9791142578125,7.624371528625488,-6.063628673553467,-1.276436686515808
1667508274854161200,1.9891611328125,8.61778450012207,-7.062445163726807,-0.8680760264396667
1667508274864208000,1.999207763671875,9.540498733520508,-7.851778507232666,0.11152100563049316
1667508274874254800,2.0092548828125,10.0053129196167,-8.331299781799316,1.0873711109161377
1667508274884301800,2.0193017578125,9.242573738098145,-7.910255432128906,1.1947258710861206
1667508274894349000,2.02934912109375,7.323805332183838,-6.307959079742432,0.9512397050857544
1667508274904396000,2.03939599609375,6.108682155609131,-6.749004364013672,-0.06485863029956818
1667508274914443000,2.049443115234375,6.873322486877441,-3.4137325286865234,-2.1009674072265625
1667508274924490000,2.059489990234375,5.9573445320129395,11.007641792297363,-3.459019899368286
1667508274934538000,2.0695380859375,5.29587459564209,18.531932830810547,-0.9502812027931213
1667508274944585000,2.0795849609375,2.4205162525177,11.806866645812988,0.8620904088020325
1667508274954632000,2.0896318359375,-3.2759766578674316,3.505143880844116,1.0030975341796875
1667508274964679000,2.099678955078125,-5.866541385650635,0.27911999821662903,1.1968752145767212
1667508274974726000,2.109725830078125,-5.1800456047058105,-0.3786458969116211,2.6493308544158936
1667508274984772900,2.11977294921875,-3.6479127407073975,-0.7467182278633118,2.4931938648223877
1667508274994819800,2.12981982421875,-2.6368393898010254,-2.522993564605713,1.2190052270889282
1667508275004867000,2.1398671875,-2.207432746887207,-5.149547576904297,0.3983793556690216
1667508275014914000,2.1499140625,-2.030928373336792,-6.220645427703857,-0.41157206892967224
1667508275024961000,2.1599609375,-1.408349633216858,-5.269841194152832,-0.4548378884792328
1667508275035008000,2.170008056640625,-0.07913684099912643,-3.1981513500213623,-0.1960238814353943
1667508275045055000,2.180054931640625,1.1950312852859497,-1.0059047937393188,0.15966938436031342
1667508275055102000,2.19010205078125,1.953834056854248,0.8517784476280212,0.14775386452674866
1667508275065149200,2.200149169921875,2.104884386062622,2.0412325859069824,-0.10980983078479767
1667508275075196000,2.21019580078125,1.8376855850219727,2.3830819129943848,-0.056521303951740265
1667508275085243000,2.220242919921875,1.458244800567627,1.7968484163284302,0.10618212074041367
1667508275095289900,2.230289794921875,0.9335586428642273,1.1103065013885498,0.24861383438110352
1667508275105336800,2.2403369140625,0.4587249159812927,0.8307064771652222,0.279226690530777
1667508275115384000,2.250384033203125,0.28122228384017944,0.5770864486694336,0.2304096221923828
1667508275125432000,2.26043212890625,0.28165367245674133,0.23418055474758148,0.2558596134185791
1667508275135479000,2.27047900390625,0.29728296399116516,-0.15237408876419067,0.40424084663391113
1667508275145526000,2.280526123046875,0.25724413990974426,-0.6021084189414978,0.606020987033844
1667508275155573000,2.290572998046875,0.17721803486347198,-1.0378271341323853,0.8033036589622498
1667508275165620000,2.300619873046875,0.06604223698377609,-1.2672054767608643,0.9296693205833435
1667508275175667000,2.3106669921875,-0.09534531831741333,-1.3011720180511475,0.981548011302948
1667508275185714000,2.3207138671875,-0.3189966380596161,-1.193950891494751,1.0288634300231934
1667508275195761000,2.330760986328125,-0.5712781548500061,-0.9644505381584167,1.13529372215271
1667508275205807900,2.340807861328125,-0.8133241534233093,-0.6444932818412781,1.283830165863037
1667508275215854800,2.350854736328125,-1.001945972442627,-0.3823492228984833,1.4247503280639648
1667508275225902000,2.360902099609375,-1.137326717376709,-0.23418132960796356,1.5702227354049683
1667508275235949000,2.370948974609375,-1.2489131689071655,-0.13263100385665894,1.7247910499572754
1667508275245996000,2.38099609375,-1.373993158340454,-0.05145007371902466,1.8671015501022339
1667508275256043000,2.39104296875,-1.5004829168319702,0.01642085239291191,1.9924284219741821
1667508275266090000,2.401090087890625,-1.6152652502059937,0.05454069748520851,2.104189395904541
1667508275276137000,2.411136962890625,-1.7047221660614014,0.09155011177062988,2.180283546447754
1667508275286184200,2.42118408203125,-1.7862366437911987,0.20724517107009888,2.2592740058898926
1667508275296231000,2.43123095703125,-1.8640164136886597,0.3725992739200592,2.3605732917785645
1667508275306279000,2.44127880859375,-1.8801472187042236,0.5148157477378845,2.4362943172454834
1667508275316325000,2.4513251953125,-1.8078292608261108,0.64173823595047,2.514599084854126
1667508275326372000,2.4613720703125,-1.6609762907028198,0.7302125692367554,2.6114821434020996
1667508275336419300,2.47141943359375,-1.4917949438095093,0.8091108202934265,2.6810495853424072
1667508275346466300,2.48146630859375,-1.3164212703704834,0.89267498254776,2.6899266242980957
1667508275356513300,2.49151318359375,-1.0906113386154175,0.9951962828636169,2.664855480194092
1667508275366560300,2.501560302734375,-0.7683476805686951,1.106212854385376,2.5926835536956787
1667508275376607200,2.511607177734375,-0.35279014706611633,1.265718936920166,2.5181238651275635
1667508275386654200,2.521654296875,0.12251710146665573,1.44933021068573,2.493617057800293
1667508275396701400,2.531701416015625,0.6003430485725403,1.596369981765747,2.5129928588867188
1667508275406748400,2.54174853515625,1.0361032485961914,1.7319778203964233,2.534470558166504
1667508275416795100,2.551795166015625,1.4289802312850952,1.8813912868499756,2.5099105834960938
1667508275426842000,2.561842041015625,1.8378068208694458,1.9704434871673584,2.41884446144104
1667508275436889000,2.57188916015625,2.3023805618286133,1.9798684120178223,2.318061113357544
1667508275446936000,2.58193603515625,2.808317184448242,1.9444769620895386,2.2417867183685303
1667508275456983300,2.5919833984375,3.3112597465515137,1.9005526304244995,2.2150871753692627
1667508275467030300,2.6020302734375,3.7880892753601074,1.8566334247589111,2.2121810913085938
1667508275477077200,2.6120771484375,4.238099098205566,1.8186384439468384,2.209874153137207
1667508275487125200,2.622125244140625,4.679224014282227,1.773071527481079,2.181915521621704
1667508275497172200,2.632172119140625,5.150780200958252,1.71861732006073,2.104851245880127
1667508275507219200,2.64221923828125,5.680717468261719,1.6205111742019653,1.9949442148208618
1667508275517266200,2.65226611328125,6.2658281326293945,1.4622055292129517,1.9017492532730103
1667508275527313200,2.662313232421875,6.835319995880127,1.2713066339492798,1.8727638721466064
1667508275537360100,2.672360107421875,7.328644752502441,1.1183903217315674,1.8899588584899902
1667508275547407000,2.682406982421875,7.696649074554443,0.914196789264679,1.8990617990493774
1667508275557454300,2.692454345703125,7.928400993347168,0.5282019376754761,1.9120934009552002
1667508275567501300,2.702501220703125,8.10313606262207,0.0592278391122818,1.9426467418670654
1667508275577548300,2.71254833984375,8.288694381713867,-0.32940563559532166,1.9492194652557373
1667508275587595300,2.72259521484375,8.437897682189941,-0.6551222205162048,1.968758225440979
1667508275597642200,2.732642333984375,8.507253646850586,-0.8988816142082214,2.0486552715301514
1667508275607689200,2.742689208984375,8.469088554382324,-1.0159322023391724,2.1525027751922607
1667508275617736400,2.752736328125,8.39110279083252,-1.0779879093170166,2.2209136486053467
1667508275627783400,2.762783447265625,8.313064575195312,-1.1864995956420898,2.283722400665283
1667508275637830100,2.772830078125,8.237245559692383,-1.325690507888794,2.3385677337646484
1667508275647878100,2.782878173828125,8.165377616882324,-1.3732999563217163,2.3511271476745605
1667508275657925000,2.792925048828125,8.138006210327148,-1.2092270851135254,2.3078088760375977
1667508275667972400,2.802972412109375,8.158546447753906,-0.8489212989807129,2.264366626739502
1667508275678019300,2.813019287109375,8.273091316223145,-0.30005979537963867,2.2194483280181885
1667508275688066300,2.82306640625,8.45206069946289,0.35024529695510864,2.142507314682007
1667508275698113300,2.83311328125,8.609797477722168,1.0150980949401855,1.9965523481369019
1667508275708160300,2.84316015625,8.722851753234863,1.6048133373260498,1.7738099098205566
1667508275718207200,2.853207275390625,8.800464630126953,2.070817232131958,1.5052975416183472
1667508275728254200,2.863254150390625,8.810302734375,2.4190356731414795,1.1908024549484253
1667508275738301200,2.87330126953125,8.69789981842041,2.6605260372161865,0.8333353996276855
1667508275748348200,2.88334814453125,8.400243759155273,2.7862870693206787,0.42483288049697876
1667508275758395100,2.89339501953125,7.912580490112305,2.815070867538452,0.04052756354212761
1667508275768442000,2.903442138671875,7.289988994598389,2.7499330043792725,-0.23039750754833221
1667508275778489300,2.9134892578125,6.615440845489502,2.690127372741699,-0.3599536120891571
1667508275788536300,2.923536376953125,5.948345184326172,2.666025161743164,-0.3754560649394989
1667508275798583300,2.933583251953125,5.292961597442627,2.5617237091064453,-0.32247620820999146
1667508275808630300,2.94363037109375,4.615528106689453,2.275419235229492,-0.23968015611171722
1667508275818678000,2.953677978515625,3.90864634513855,1.797035813331604,-0.1585504114627838
1667508275828725200,2.963725341796875,3.216637372970581,1.1638305187225342,-0.07763152569532394
1667508275838772200,2.973772216796875,2.5905065536499023,0.4445316791534424,0.0006347876042127609
1667508275848819200,2.983819091796875,2.0553388595581055,-0.265168696641922,0.08550895750522614
1667508275858866200,2.9938662109375,1.6159467697143555,-0.8756626844406128,0.17744021117687225
1667508275868913200,3.0039130859375,1.2678407430648804,-1.3421828746795654,0.26264697313308716
1667508275878960000,3.013960205078125,1.0175256729125977,-1.6822261810302734,0.33006009459495544
1667508275889007400,3.02400732421875,0.8425994515419006,-1.8771528005599976,0.3695685863494873
1667508275899054300,3.034054443359375,0.7347536683082581,-1.8996104001998901,0.4033600986003876
1667508275909101300,3.044101318359375,0.6752929091453552,-1.7689204216003418,0.43202707171440125
1667508275919148300,3.054148193359375,0.5681180357933044,-1.503951907157898,0.4548543691635132
1667508275929195300,3.0641953125,0.3441195487976074,-1.1104648113250732,0.4868234694004059
1667508275939242200,3.0742421875,0.05091509595513344,-0.6150804162025452,0.5173201560974121
1667508275949289200,3.084289306640625,-0.24599534273147583,-0.09319858998060226,0.5206298828125
1667508275959336200,3.094336181640625,-0.5078072547912598,0.374242901802063,0.4843840003013611
1667508275969383200,3.104383056640625,-0.7119362950325012,0.6755485534667969,0.4113853871822357
1667508275979431200,3.11443115234375,-0.872003972530365,0.7810089588165283,0.3264683783054352
1667508275989478400,3.124478515625,-1.0057576894760132,0.7148857712745667,0.25883641839027405
1667508275999525400,3.134525390625,-1.117329478263855,0.5558998584747314,0.20389115810394287
1667508276009572400,3.144572265625,-1.2300913333892822,0.3701702654361725,0.1673940271139145
1667508276019619300,3.154619384765625,-1.3443849086761475,0.21159422397613525,0.12964504957199097
1667508276029666300,3.164666259765625,-1.4642680883407593,0.11901877820491791,0.09319877624511719
1667508276039713000,3.174713134765625,-1.5891495943069458,0.09788339585065842,0.04878790304064751
1667508276049760300,3.18476025390625,-1.7016923427581787,0.1512422114610672,0.00342826871201396
1667508276059807200,3.19480712890625,-1.7995624542236328,0.2698433995246887,-0.036181990057229996
1667508276069854200,3.204854248046875,-1.886243224143982,0.4570819139480591,-0.04849809408187866
1667508276079901200,3.214901123046875,-1.9667476415634155,0.6746374368667603,-0.04077599197626114
1667508276089948200,3.2249482421875,-2.057581663131714,0.8779633641242981,-0.010283229872584343
1667508276099995100,3.2349951171875,-2.168501377105713,1.0339806079864502,0.036046985536813736
1667508276110042400,3.24504248046875,-2.284588098526001,1.1241276264190674,0.07585391402244568
1667508276120089300,3.25508935546875,-2.396131992340088,1.1506825685501099,0.12440334260463715
1667508276130137000,3.26513720703125,-2.507096767425537,1.137490153312683,0.1686711609363556
1667508276140184000,3.27518408203125,-2.622079610824585,1.076403021812439,0.21939826011657715
1667508276150231000,3.28523095703125,-2.7376210689544678,0.9315281510353088,0.27065277099609375
1667508276160278300,3.2952783203125,-2.8620717525482178,0.7060971260070801,0.34944799542427063
1667508276170325200,3.3053251953125,-2.992708206176758,0.4264703094959259,0.44025498628616333
1667508276180372200,3.315372314453125,-3.1245341300964355,0.08510658890008926,0.48860788345336914
1667508276190419200,3.325419189453125,-3.245429277420044,-0.31405067443847656,0.4892057478427887
1667508276200466200,3.335466064453125,-3.3373818397521973,-0.6873794794082642,0.44547238945961
1667508276210513200,3.34551318359375,-3.363826036453247,-0.9185032844543457,0.3667263090610504
1667508276220560400,3.355560302734375,-3.298036813735962,-0.9898310303688049,0.30827897787094116
1667508276230607400,3.365607421875,-3.1805951595306396,-0.9143804907798767,0.2963593006134033
1667508276240654300,3.375654296875,-3.0765140056610107,-0.7443733215332031,0.3225347101688385
1667508276250701300,3.385701416015625,-3.0131170749664307,-0.6183571815490723,0.39924874901771545
1667508276260748000,3.395748046875,-2.9549829959869385,-0.5687224864959717,0.4886625111103058
1667508276270796300,3.40579638671875,-2.870795965194702,-0.6084471344947815,0.5618936419487
1667508276280843300,3.41584326171875,-2.7390310764312744,-0.7486298084259033,0.598717212677002
1667508276290890200,3.42589013671875,-2.5678112506866455,-0.9750659465789795,0.5942270755767822
1667508276300937200,3.435937255859375,-2.400967597961426,-1.2341177463531494,0.5757958889007568
1667508276310984700,3.445984619140625,-2.2573320865631104,-1.4602851867675781,0.5564289689064026
1667508276321031700,3.45603173828125,-2.1253502368927,-1.6027008295059204,0.5523548722267151
1667508276331078700,3.46607861328125,-1.9922832250595093,-1.6489982604980469,0.5456719398498535
1667508276341125600,3.476125732421875,-1.8388092517852783,-1.6429758071899414,0.550348162651062
1667508276351172600,3.486172607421875,-1.6597448587417603,-1.6238560676574707,0.5686481595039368
1667508276361219600,3.496219482421875,-1.4539048671722412,-1.595521092414856,0.5869938731193542
1667508276371266600,3.5062666015625,-1.2199574708938599,-1.569699764251709,0.6164039969444275
1667508276381313500,3.5163134765625,-0.9536812901496887,-1.5539047718048096,0.6638091206550598
1667508276391360500,3.526360595703125,-0.6740120649337769,-1.516860008239746,0.738388180732727
1667508276401407700,3.53640771484375,-0.38271552324295044,-1.4376142024993896,0.8572114706039429
1667508276411455700,3.546455810546875,-0.09398207813501358,-1.2769489288330078,1.0332759618759155
1667508276421502500,3.55650244140625,0.14321556687355042,-1.0051175355911255,1.2650783061981201
1667508276431549400,3.566549560546875,0.28634941577911377,-0.6569649577140808,1.5313167572021484
1667508276441596400,3.576596435546875,0.3375769257545471,-0.34907764196395874,1.7805876731872559
1667508276451643600,3.5866435546875,0.3075801432132721,-0.19663085043430328,1.9933717250823975
1667508276461690600,3.596690673828125,0.22135017812252045,-0.23166367411613464,2.1719233989715576
1667508276471737600,3.606737548828125,0.08066444844007492,-0.42481720447540283,2.3164477348327637
1667508276481784600,3.61678466796875,-0.12929438054561615,-0.7391389012336731,2.4163639545440674
1667508276491831600,3.62683154296875,-0.40331172943115234,-1.141210913658142,2.484100341796875
1667508276501878500,3.63687841796875,-0.7027727365493774,-1.6064165830612183,2.528280019760132
1667508276511925800,3.64692578125,-0.9999808669090271,-2.107522964477539,2.552605390548706
1667508276521972700,3.65697265625,-1.2713266611099243,-2.607168197631836,2.5678327083587646
1667508276532019700,3.667019775390625,-1.5282233953475952,-3.0347280502319336,2.588427782058716
1667508276542066700,3.677066650390625,-1.7848397493362427,-3.324451208114624,2.620021343231201
1667508276552114700,3.68711474609375,-2.051227569580078,-3.4502170085906982,2.6551904678344727
1667508276562161700,3.69716162109375,-2.306661367416382,-3.441300392150879,2.6955363750457764
1667508276572208600,3.707208740234375,-2.533597707748413,-3.354137897491455,2.733910322189331
1667508276582255600,3.717255615234375,-2.703277587890625,-3.263185501098633,2.7679922580718994
1667508276592302600,3.727302490234375,-2.800337553024292,-3.1927449703216553,2.769186496734619
1667508276602349600,3.737349609375,-2.8410537242889404,-3.151649236679077,2.7224817276000977
1667508276612396800,3.747396728515625,-2.8863840103149414,-3.1345040798187256,2.6636719703674316
1667508276622443800,3.75744384765625,-2.964008092880249,-3.111283302307129,2.5928955078125
1667508276632490800,3.76749072265625,-3.0437910556793213,-3.0673022270202637,2.4783740043640137
1667508276642537500,3.777537353515625,-3.0670864582061768,-2.991746664047241,2.316422462463379
1667508276652584400,3.78758447265625,-2.959218978881836,-2.9091620445251465,2.148888349533081
1667508276662631400,3.79763134765625,-2.6546220779418945,-2.9134273529052734,1.977522611618042
1667508276672678700,3.8076787109375,-2.1771233081817627,-3.038897752761841,1.8659679889678955
1667508276682725600,3.8177255859375,-1.6087093353271484,-3.106579542160034,1.7674981355667114
1667508276692773600,3.827773681640625,-1.013150691986084,-2.926079511642456,1.669761300086975
1667508276702820600,3.837820556640625,-0.4486292898654938,-2.5328500270843506,1.5433261394500732
1667508276712867600,3.84786767578125,0.02876644767820835,-2.0780012607574463,1.4026602506637573
1667508276722914800,3.857914794921875,0.3738841414451599,-1.6502399444580078,1.2812126874923706
1667508276732961500,3.86796142578125,0.6291240453720093,-1.2606263160705566,1.1978545188903809
1667508276743008500,3.878008544921875,0.8414064645767212,-0.9447922110557556,1.1453402042388916
1667508276753055500,3.888055419921875,1.0052708387374878,-0.7573471069335938,1.0967795848846436
1667508276763102500,3.8981025390625,1.1107873916625977,-0.7158478498458862,1.0449388027191162
1667508276773149400,3.9081494140625,1.173869013786316,-0.7622947096824646,0.9779295921325684
1667508276783196700,3.91819677734375,1.1937636137008667,-0.8240659832954407,0.92005854845047
1667508276793243600,3.92824365234375,1.1795300245285034,-0.86507248878479,0.8735554218292236
1667508276803290600,3.93829052734375,1.1476792097091675,-0.8785725831985474,0.8531713485717773
1667508276813337600,3.948337646484375,1.0961660146713257,-0.8646101951599121,0.8308495879173279
1667508276823385600,3.958385498046875,0.99534672498703,-0.824489951133728,0.7838240265846252
1667508276833432600,3.9684326171875,0.8231998682022095,-0.802106499671936,0.7219256162643433
1667508276843479600,3.9784794921875,0.5938356518745422,-0.791504442691803,0.6501204371452332
1667508276853526500,3.988526611328125,0.3446357250213623,-0.799837052822113,0.5698288083076477
1667508276863573500,3.998573486328125,0.08507870137691498,-0.8116122484207153,0.49866461753845215
1667508276873620500,4.008620361328125,-0.15542012453079224,-0.7913373708724976,0.4441835284233093
1667508276883667700,4.018667724609375,-0.372227281332016,-0.7587605118751526,0.39365243911743164
1667508276893714700,4.028714599609375,-0.5530981421470642,-0.7491996884346008,0.3542596995830536
1667508276903761700,4.03876171875,-0.7265809774398804,-0.7536543607711792,0.31183552742004395
1667508276913808600,4.04880859375,-0.9206957817077637,-0.7191455960273743,0.29297611117362976
1667508276923855600,4.058855712890625,-1.1287211179733276,-0.6003041863441467,0.2959681749343872
1667508276933902600,4.068902587890625,-1.309538722038269,-0.3820934593677521,0.30844831466674805
1667508276943949800,4.07894970703125,-1.4639170169830322,-0.08581304550170898,0.3305445611476898
1667508276953997600,4.08899755859375,-1.6114847660064697,0.24148792028427124,0.3749504089355469
1667508276964044500,4.09904443359375,-1.7763108015060425,0.5398806929588318,0.43899115920066833
1667508276974091500,4.109091552734375,-1.9543291330337524,0.734661340713501,0.5122480392456055
1667508276984138500,4.119138427734375,-2.1218740940093994,0.8317519426345825,0.5882607698440552
1667508276994185700,4.129185791015625,-2.271620988845825,0.9308018684387207,0.6661428213119507
1667508277004232700,4.139232666015625,-2.4286162853240967,1.054279088973999,0.7445444464683533
1667508277014279700,4.14927978515625,-2.6240124702453613,1.1926841735839844,0.8311436176300049
1667508277024326700,4.15932666015625,-2.8292670249938965,1.3370054960250854,0.9433151483535767
1667508277034373600,4.16937353515625,-3.014324188232422,1.4865777492523193,1.0668630599975586
1667508277044420600,4.179420654296875,-3.1634836196899414,1.6229093074798584,1.2059547901153564
1667508277054467600,4.189467529296875,-3.2539854049682617,1.732469081878662,1.3468748331069946
1667508277064514600,4.1995146484375,-3.347412586212158,1.8130570650100708,1.4822404384613037
1667508277074562600,4.2095625,-3.4270098209381104,1.8589402437210083,1.5768678188323975
1667508277084609500,4.219609619140625,-3.489168882369995,1.9099667072296143,1.6088273525238037
1667508277094656800,4.22965673828125,-3.5258641242980957,1.9919754266738892,1.5942559242248535
1667508277104703700,4.239703857421875,-3.5044286251068115,2.1657180786132812,1.5605733394622803
1667508277114750700,4.249750732421875,-3.4140446186065674,2.419921636581421,1.5238133668899536
1667508277124797700,4.259797607421875,-3.2932868003845215,2.751465082168579,1.4851852655410767
1667508277134844400,4.269844482421875,-3.216001510620117,3.1329469680786133,1.461601734161377
1667508277144891400,4.279891357421875,-3.1954429149627686,3.5014262199401855,1.4897468090057373
1667508277154938600,4.289938720703125,-3.2046263217926025,3.797663688659668,1.566584587097168
1667508277164985600,4.299985595703125,-3.227686643600464,4.00801944732666,1.6878551244735718
1667508277175032600,4.310032470703125,-3.1852309703826904,4.169816017150879,1.8369710445404053
1667508277185079600,4.32007958984375,-3.0411739349365234,4.342770099639893,1.9792370796203613
1667508277195127800,4.3301279296875,-2.811737537384033,4.493872165679932,2.111436367034912
1667508277205174800,4.3401748046875,-2.556485176086426,4.638758659362793,2.242238759994507
1667508277215221800,4.3502216796875,-2.3110604286193848,4.707298755645752,2.397643566131592
1667508277225268500,4.3602685546875,-2.0596399307250977,4.678894519805908,2.5656893253326416
1667508277235315500,4.3703154296875,-1.7925622463226318,4.573119640350342,2.706031084060669
1667508277245362400,4.380362548828125,-1.480062484741211,4.390231609344482,2.7631452083587646
1667508277255409700,4.39040966796875,-1.1284511089324951,4.1346821784973145,2.754796266555786
1667508277265456600,4.40045654296875,-0.7877134680747986,3.699521780014038,2.7033557891845703
1667508277275503600,4.410503662109375,-0.5143338441848755,3.080110788345337,2.7044501304626465
1667508277285550600,4.420550537109375,-0.35205575823783875,0.8621638417243958,3.1528234481811523
1667508277295597600,4.43059765625,-0.33554506301879883,-2.1841611862182617,3.1953952312469482
1667508277305644500,4.44064453125,-1.21113121509552,-2.9286890029907227,3.2789323329925537
1667508277315692500,4.450692626953125,-0.8450498580932617,-2.769122838973999,3.3406803607940674
1667508277325739800,4.46073974609375,0.6675361394882202,-1.0648545026779175,2.4732911586761475
1667508277335786800,4.470786865234375,1.2906755208969116,-0.5524702072143555,2.160560369491577
1667508277345833700,4.480833740234375,1.056258201599121,0.3192088007926941,2.0068845748901367
1667508277355880700,4.490880615234375,0.648277997970581,1.2654427289962769,2.225141763687134
1667508277365927700,4.500927734375,0.6176764369010925,1.3527402877807617,2.12603497505188
1667508277375974700,4.510974609375,1.0024672746658325,0.5109595656394958,1.8985528945922852
1667508277386022000,4.52102197265625,1.4023970365524292,-0.18168464303016663,1.8887364864349365
1667508277396068900,4.53106884765625,1.4498100280761719,-0.4704362452030182,2.029566526412964
1667508277406115800,4.54111572265625,1.257636547088623,-0.6095776557922363,2.1366333961486816
1667508277416162800,4.551162841796875,1.1844208240509033,-0.4164537787437439,2.0528576374053955
1667508277426209800,4.561209716796875,1.2641862630844116,-0.16922828555107117,1.7842724323272705
1667508277436257800,4.5712578125,1.4442393779754639,0.29300054907798767,1.474919080734253
1667508277446304800,4.5813046875,1.5910831689834595,0.8868960738182068,1.1598020792007446
1667508277456351700,4.591351806640625,1.7084267139434814,1.4358937740325928,0.8322409987449646
1667508277466398700,4.601398681640625,1.8648046255111694,1.9137961864471436,0.48939359188079834
1667508277476445700,4.61144580078125,2.112293243408203,2.283350706100464,0.10994270443916321
1667508277486493000,4.621492919921875,2.463168144226074,2.5215306282043457,-0.2509393095970154
1667508277496540000,4.631539794921875,2.785568952560425,2.588667631149292,-0.6101884841918945
1667508277506587000,4.6415869140625,3.0532631874084473,2.64605450630188,-0.9431936144828796
1667508277516633900,4.6516337890625,3.227537155151367,2.7598512172698975,-1.0842292308807373
1667508277526680800,4.661680908203125,3.2168405055999756,2.777735948562622,-1.0317953824996948
1667508277536727600,4.6717275390625,3.16259765625,2.6038787364959717,-0.8871781826019287
1667508277546775800,4.68177587890625,2.989600896835327,2.2694578170776367,-0.662643313407898
1667508277556822800,4.69182275390625,2.835982084274292,1.695510983467102,-0.6119437217712402
1667508277566869800,4.701869873046875,2.661442518234253,1.183767557144165,-0.6541407108306885
1667508277576916700,4.711916748046875,2.36207914352417,0.6199922561645508,-0.6779543161392212
1667508277586964000,4.7219638671875,2.1138341426849365,0.17820796370506287,-0.6575315594673157
1667508277597011000,4.732010986328125,1.9003729820251465,-0.2915123701095581,-0.5008493065834045
1667508277607058000,4.742057861328125,1.6074481010437012,-0.7419456243515015,-0.3676086962223053
1667508277617105000,4.75210498046875,1.1947258710861206,-1.144189715385437,-0.3201963007450104
1667508277627151600,4.762151611328125,0.7784662842750549,-1.4323967695236206,-0.24495083093643188
1667508277637198600,4.772198486328125,0.4588235318660736,-1.5749576091766357,-0.1786780208349228
1667508277647245800,4.782245849609375,0.27647316455841064,-1.7598384618759155,-0.18341071903705597
1667508277657293800,4.7922939453125,0.25742393732070923,-1.912965178489685,-0.15076641738414764
1667508277667340800,4.8023408203125,0.211527019739151,-1.9731025695800781,-0.09050359576940536
1667508277677387800,4.8123876953125,0.10222090780735016,-2.0589349269866943,-0.09819475561380386
1667508277687434800,4.822434814453125,-0.11047910898923874,-1.8851388692855835,-0.130438432097435
1667508277697482000,4.83248193359375,0.03453072905540466,-1.6340670585632324,-0.3122611939907074
1667508277707528700,4.84252880859375,0.4291139841079712,-1.3026401996612549,-0.5503155589103699
1667508277717575700,4.85257568359375,0.7321853637695312,-0.9765445590019226,-0.5477164387702942
1667508277727622700,4.86262255859375,0.6465282440185547,-0.8320054411888123,-0.43072909116744995
1667508277737669600,4.872669677734375,0.4774695336818695,-0.7810598015785217,-0.43867960572242737
1667508277747716600,4.882716552734375,0.4799174964427948,-0.8366439938545227,-0.5480561256408691
1667508277757764900,4.892764892578125,0.45266762375831604,-0.7451282739639282,-0.6234874129295349
1667508277767811800,4.902811767578125,0.2667368948459625,-0.4699193239212036,-0.6227060556411743
1667508277777858800,4.91285888671875,0.10394500195980072,-0.012913679704070091,-0.561529278755188
1667508277787905800,4.92290576171875,0.08683791756629944,0.19592447578907013,-0.49869194626808167
1667508277797952800,4.932952880859375,0.003397373016923666,0.03476433828473091,-0.46368831396102905
1667508277807999700,4.942999755859375,-0.183405801653862,-0.17832396924495697,-0.42799609899520874
1667508277818046700,4.953046630859375,-0.423178106546402,-0.34944891929626465,-0.4331216812133789
1667508277828093700,4.96309375,-0.5967022180557251,-0.31601855158805847,-0.48751726746559143
1667508277838140700,4.973140625,-0.6797481179237366,-0.14494718611240387,-0.5674154162406921
1667508277848189000,4.98318896484375,-0.7378537654876709,-0.01034676842391491,-0.6085061430931091
1667508277858236000,4.99323583984375,-0.8094814419746399,0.06688084453344345,-0.5950561165809631
1667508277868283000,5.003282958984375,-0.844805896282196,0.0553208589553833,-0.5414179563522339
1667508277878329900,5.013329833984375,-0.8732001781463623,-0.003319129813462496,-0.4673449695110321
1667508277888376800,5.023376953125,-0.83444744348526,0.029603134840726852,-0.4108617305755615
1667508277898423600,5.033423583984375,-0.7798048853874207,-0.02334829792380333,-0.3578029274940491
1667508277908470800,5.043470703125,-0.89283287525177,-0.0732378289103508,-0.25020483136177063
1667508277918517800,5.053517822265625,-1.1437302827835083,-0.048262570053339005,-0.022369608283042908
1667508277928564700,5.063564697265625,-1.42505943775177,-0.02121018059551716,0.26428186893463135
1667508277938611700,5.07361181640625,-1.6849242448806763,0.08671142905950546,0.5178117156028748
1667508277948658700,5.08365869140625,-1.8324012756347656,0.13900180160999298,0.7148909568786621
1667508277958707000,5.09370703125,-1.8842421770095825,-0.07301563024520874,0.8939881324768066
1667508277968754000,5.10375390625,-1.8951314687728882,-0.3942570388317108,1.0153449773788452
1667508277978801000,5.11380078125,-1.8779542446136475,-1.0663988590240479,1.2296626567840576
1667508277988847600,5.12384765625,-1.8026901483535767,-1.3138011693954468,1.3254531621932983
1667508277998894600,5.13389453125,-1.6915268898010254,-1.807867407798767,1.4883997440338135
1667508278008941800,5.14394189453125,-1.5718507766723633,-2.3949906826019287,1.6524890661239624
1667508278018988800,5.15398876953125,-1.4350380897521973,-2.768763542175293,1.7183128595352173
1667508278029035800,5.164035888671875,-1.60873281955719,-2.7820687294006348,1.630616545677185
1667508278039082800,5.174082763671875,-1.8311681747436523,-2.783113718032837,1.4556224346160889
1667508278049129700,5.184129638671875,-1.8520548343658447,-2.8385426998138428,1.291319727897644
1667508278059176700,5.1941767578125,-1.8220871686935425,-2.8326022624969482,1.1252268552780151
1667508278069225000,5.204224853515625,-1.734560251235962,-2.5040276050567627,0.9319827556610107
1667508278079271700,5.214271728515625,-1.5852612257003784,-2.176340341567993,0.7812640070915222
1667508278089318700,5.224318603515625,-1.4255166053771973,-2.0818588733673096,0.7199702858924866
1667508278099365600,5.23436572265625,-1.3947051763534546,-2.077706813812256,0.6210609674453735
1667508278109412600,5.24441259765625,-1.295965552330017,-2.140000581741333,0.5169175267219543
1667508278119459800,5.2544599609375,-1.2853765487670898,-2.1090316772460938,0.4606510400772095
1667508278129506800,5.2645068359375,-1.3017174005508423,-1.9808814525604248,0.3223176598548889
1667508278139553800,5.2745537109375,-0.9668773412704468,-2.106015205383301,-0.03477494418621063
1667508278149600800,5.284600830078125,-0.3414323925971985,-2.4723525047302246,-0.43845292925834656
1667508278159647700,5.294647705078125,0.3104793131351471,-2.9916155338287354,-0.6473190188407898
1667508278169694700,5.30469482421875,0.7722770571708679,-3.326937675476074,-0.6848828792572021
1667508278179742700,5.31474267578125,0.9446285963058472,-3.208861827850342,-0.6407501697540283
1667508278189789700,5.324789794921875,1.0188311338424683,-2.61867356300354,-0.6221027374267578
1667508278199836700,5.334836669921875,1.195245623588562,-1.7500197887420654,-0.6409963965415955
1667508278209883600,5.344883544921875,1.4638988971710205,-0.8098111748695374,-0.6476939916610718
1667508278219931000,5.354930908203125,1.7043546438217163,0.018282810226082802,-0.599562406539917
1667508278229977900,5.364977783203125,1.8157081604003906,0.5538809895515442,-0.536509096622467
1667508278240024800,5.37502490234375,1.8317432403564453,0.7515681982040405,-0.5215276479721069
1667508278250071800,5.38507177734375,1.8130406141281128,0.7152333855628967,-0.5863588452339172
1667508278260118800,5.395118896484375,1.7878445386886597,0.6546154022216797,-0.6980426907539368
1667508278270165800,5.405165771484375,1.7407745122909546,0.6662198305130005,-0.8144617080688477
1667508278280213000,5.415212890625,1.6805697679519653,0.7533199191093445,-0.9281938076019287
1667508278290260700,5.4252607421875,1.5893687009811401,0.857656717300415,-1.0985835790634155
1667508278300307700,5.4353076171875,1.408706784248352,0.8838273882865906,-1.2828234434127808
1667508278310354700,5.445354736328125,1.1385722160339355,0.8413129448890686,-1.449338674545288
1667508278320401200,5.455401123046875,0.8288781046867371,0.7537992596626282,-1.6831985712051392
1667508278330448400,5.465448486328125,0.5821011066436768,0.6088266372680664,-2.0886552333831787
1667508278340495400,5.475495361328125,0.5075691342353821,0.4502899944782257,-2.6178395748138428
1667508278350542300,5.485542236328125,0.5888373255729675,0.2858315408229828,-3.0984480381011963
1667508278360589300,5.49558935546875,0.68919837474823,0.26136812567710876,-3.365772008895874
1667508278370636300,5.50563623046875,0.6456533074378967,0.4311203956604004,-3.34295916557312
1667508278380683300,5.515683349609375,0.425649493932724,0.7013208866119385,-3.070915937423706
1667508278390731300,5.525731201171875,0.10503124445676804,0.766812264919281,-2.680785655975342
1667508278400778200,5.5357783203125,-0.21057257056236267,0.3531680405139923,-2.3001198768615723
1667508278410825200,5.5458251953125,-0.4238741993904114,-0.5334459543228149,-1.9554542303085327
1667508278420872200,5.5558720703125,-0.4963248372077942,-1.5770585536956787,-1.6476290225982666
1667508278430919200,5.565919189453125,-0.471382737159729,-2.3939266204833984,-1.3582313060760498
1667508278440966400,5.57596630859375,-0.41303128004074097,-2.795630931854248,-1.0312975645065308
1667508278451013400,5.586013427734375,-0.4565827548503876,-2.6848337650299072,-0.5510561466217041
1667508278461060400,5.596060302734375,-0.699962317943573,-2.548734188079834,0.1468031108379364
1667508278471107300,5.606107421875,-1.0536460876464844,-2.9086265563964844,0.8791875839233398
1667508278481154300,5.616154296875,-1.1271259784698486,-3.356595754623413,1.4633405208587646
1667508278491201300,5.626201171875,-0.6570106148719788,-3.4176292419433594,2.0709776878356934
1667508278501249300,5.636249267578125,0.060454707592725754,-2.99794602394104,2.7524795532226562
1667508278511296300,5.646296142578125,0.6048187017440796,-2.3246543407440186,3.3614180088043213
1667508278521343200,5.65634326171875,0.9321091771125793,-1.6253124475479126,3.9089436531066895
1667508278531390200,5.66639013671875,1.0216127634048462,-0.9261205792427063,4.53185510635376
1667508278541437400,5.6764375,0.8302804827690125,-1.1133428812026978,5.9054341316223145
1667508278551484400,5.686484375,1.4164601564407349,0.6328315734863281,4.8997111320495605
1667508278561531400,5.696531494140625,1.9368231296539307,3.1342999935150146,1.1295011043548584
1667508278571578400,5.706578369140625,0.7612061500549316,0.279293030500412,1.152186393737793
1667508278581625300,5.716625244140625,0.067754827439785,-3.544630527496338,2.97457218170166
1667508278591672000,5.726672119140625,-0.3886539936065674,-3.1447973251342773,2.269948720932007
1667508278601719300,5.73671923828125,-0.393555223941803,-1.3424298763275146,2.4352996349334717
1667508278611767300,5.746767333984375,-0.08533906936645508,-0.5159088373184204,3.2859950065612793
1667508278621814300,5.756814208984375,0.16751262545585632,-0.4873029291629791,3.681091547012329
1667508278631861200,5.766861328125,0.18753613531589508,-0.5920810699462891,3.4707047939300537
1667508278641908200,5.776908203125,-0.07801070809364319,-1.1644179821014404,3.1085877418518066
1667508278651955500,5.78695556640625,-0.43715742230415344,-1.9561333656311035,3.072604179382324
1667508278662002400,5.79700244140625,-0.5197910666465759,-2.2841241359710693,3.3177459239959717
1667508278672049400,5.80704931640625,-0.3597731292247772,-2.137587308883667,3.450537919998169
1667508278682096000,5.81709619140625,-0.24742937088012695,-1.77805495262146,3.38677716255188
1667508278692143000,5.82714306640625,-0.28399163484573364,-1.3537508249282837,3.2812235355377197
1667508278702190000,5.837190185546875,-0.36903640627861023,-1.0345577001571655,3.2112715244293213
1667508278712238300,5.84723828125,-0.406636506319046,-0.9090834259986877,3.1606483459472656
1667508278722285300,5.857285400390625,-0.3816850781440735,-1.0066578388214111,3.083174467086792
1667508278732332300,5.867332275390625,-0.3662254214286804,-1.339290976524353,3.026508092880249
1667508278742379300,5.877379150390625,-0.4336780309677124,-1.8032071590423584,3.02907657623291
1667508278752426500,5.887426513671875,-0.5733743906021118,-2.2095327377319336,3.015935182571411
1667508278762473500,5.897473388671875,-0.7230339050292969,-2.422640562057495,2.9569268226623535
1667508278772520200,5.907520263671875,-0.8085147142410278,-2.390989303588867,2.88946533203125
1667508278782567200,5.917567138671875,-0.8104797005653381,-2.174192428588867,2.8622264862060547
1667508278792614100,5.9276142578125,-0.774552047252655,-1.905106544494629,2.8491997718811035
1667508278802661000,5.9376611328125,-0.742488443851471,-1.6828159093856812,2.877441167831421
1667508278812709400,5.94770947265625,-0.7474187612533569,-1.5158274173736572,2.942394971847534
1667508278822756400,5.95775634765625,-0.801630437374115,-1.4206024408340454,2.9859673976898193
1667508278832803300,5.96780322265625,-0.8934413194656372,-1.4034579992294312,3.0561015605926514
1667508278842850300,5.977850341796875,-0.9665136337280273,-1.3259696960449219,3.144244432449341
1667508278852897300,5.987897216796875,-0.9806896448135376,-1.2117408514022827,3.2126572132110596
1667508278862944300,5.9979443359375,-0.9723060131072998,-1.1255840063095093,3.3397939205169678
1667508278872991200,6.0079912109375,-0.9578921794891357,-1.1080819368362427,3.5394370555877686
1667508278883038200,6.0180380859375,-0.9528006911277771,-1.1075674295425415,3.7230064868927
1667508278893085200,6.028085205078125,-0.9080846309661865,-1.0982484817504883,3.8779563903808594
1667508278903132200,6.038132080078125,-0.799759030342102,-0.9924944043159485,4.023299694061279
1667508278913179100,6.04817919921875,-0.6584844589233398,-0.9120475053787231,4.210092544555664
1667508278923227400,6.058227294921875,-0.4920322895050049,-0.9749114513397217,4.40724515914917
1667508278933274400,6.0682744140625,-0.3267756998538971,-1.0796239376068115,4.597742080688477
1667508278943321300,6.0783212890625,-0.15906116366386414,-1.0933016538619995,4.789249420166016
1667508278953368000,6.0883681640625,-0.005042562261223793,-1.015167474746704,4.87791109085083
1667508278963415300,6.098415283203125,0.057323917746543884,-1.0895482301712036,4.880163669586182
1667508278973462300,6.108462158203125,0.04389546066522598,-1.2940711975097656,4.592092514038086
1667508278983509200,6.11850927734375,-0.14962895214557648,-1.4620147943496704,4.113114833831787
1667508278993556200,6.12855615234375,-0.5069796442985535,-1.4495775699615479,4.1028876304626465
1667508279003603200,6.138603271484375,-0.851773202419281,-1.096847653388977,4.373818874359131
1667508279013651500,6.1486513671875,-0.9813450574874878,-0.8483867645263672,4.473687171936035
1667508279023698400,6.158698486328125,-0.7829804420471191,-0.6636011004447937,4.334763526916504
1667508279033745400,6.168745361328125,-0.4717724919319153,-0.16766777634620667,4.175323963165283
1667508279043792100,6.178792236328125,-0.33351224660873413,0.43987080454826355,4.129169940948486
1667508279053839000,6.188839111328125,-0.402450829744339,0.838266909122467,4.060384273529053
1667508279063886000,6.198885986328125,-0.5100461840629578,0.9957100749015808,3.880136728286743
1667508279073933300,6.208933349609375,-0.5133962035179138,1.2715816497802734,3.6370787620544434
1667508279083980300,6.218980224609375,-0.33149805665016174,1.5908586978912354,3.3797800540924072
1667508279094027300,6.22902734375,0.07482520490884781,1.6461623907089233,3.160491943359375
1667508279104074200,6.23907421875,0.5107380747795105,1.5633631944656372,2.9854321479797363
1667508279114121200,6.249121337890625,0.6195700168609619,1.4456455707550049,2.969398260116577
1667508279124169500,6.25916943359375,0.3673466742038727,1.0376118421554565,3.1083641052246094
1667508279134216200,6.26921630859375,0.1264328509569168,0.3293819725513458,3.2105612754821777
1667508279144263200,6.27926318359375,0.13276676833629608,-0.36795830726623535,3.2686798572540283
1667508279154310100,6.28931005859375,0.3677060306072235,-0.8947017788887024,3.404494285583496
1667508279164357000,6.299357177734375,0.641568660736084,-1.357679009437561,3.5816032886505127
1667508279174404400,6.309404296875,0.8269094824790955,-1.8339624404907227,3.701486349105835
1667508279184451300,6.319451416015625,0.8560276031494141,-2.3320255279541016,3.8165087699890137
1667508279194498300,6.329498291015625,0.6985974907875061,-2.8168556690216064,3.9559850692749023
1667508279204545300,6.339545166015625,0.4163224995136261,-3.31579852104187,4.03195858001709
1667508279214593300,6.34959326171875,0.17675888538360596,-3.7765209674835205,4.081541061401367
1667508279224640300,6.35964013671875,0.016157720237970352,-4.090208053588867,4.096933841705322
1667508279234687200,6.369687255859375,-0.14278557896614075,-4.36380672454834,4.058693885803223
1667508279244734200,6.379734130859375,-0.33699989318847656,-4.678807735443115,3.9188787937164307
1667508279254781200,6.38978125,-0.5543428659439087,-4.910742282867432,3.7254858016967773
1667508279264828200,6.399828125,-0.7507672905921936,-4.878167629241943,3.588923692703247
1667508279274875100,6.409875244140625,-0.8422237038612366,-4.492922306060791,3.548009157180786
1667508279284922400,6.41992236328125,-0.7631407380104065,-3.8394458293914795,3.534881830215454
1667508279294969300,6.42996923828125,-0.5687323808670044,-3.1444482803344727,3.4936106204986572
1667508279305016300,6.440016357421875,-0.38505733013153076,-2.5509183406829834,3.426009178161621
1667508279315064800,6.45006494140625,-0.2841578722000122,-2.2395617961883545,3.3213930130004883
1667508279325111800,6.46011181640625,-0.3037579655647278,-2.4218664169311523,3.232436180114746
1667508279335158800,6.47015869140625,-0.4647548496723175,-2.917268753051758,3.1913723945617676
1667508279345205800,6.480205810546875,-0.7326390147209167,-3.400482654571533,3.134350538253784
1667508279355253000,6.4902529296875,-1.0127884149551392,-3.886897325515747,3.091618299484253
1667508279365300000,6.500300048828125,-1.236407995223999,-4.307562351226807,3.1199514865875244
1667508279375347000,6.510346923828125,-1.4363491535186768,-4.376955986022949,3.2139408588409424
1667508279385394000,6.520393798828125,-1.5603522062301636,-3.913315534591675,3.2756240367889404
1667508279395441000,6.53044091796875,-1.5532439947128296,-3.1640031337738037,3.2934556007385254
1667508279405488000,6.540488037109375,-1.4532470703125,-2.340569019317627,3.367086887359619
1667508279415535900,6.550535888671875,-1.3697763681411743,-1.7419540882110596,3.463698387145996
1667508279425582800,6.560582763671875,-1.4375196695327759,-1.3731778860092163,3.561086893081665
1667508279435629800,6.5706298828125,-1.6015563011169434,-1.1207927465438843,3.631812572479248
1667508279445676800,6.5806767578125,-1.7252599000930786,-0.859106183052063,3.6117680072784424
1667508279455724000,6.59072412109375,-1.678770661354065,-0.6328139305114746,3.431155204772949
1667508279465771000,6.60077099609375,-1.457446813583374,-0.3602433502674103,2.975437641143799
1667508279475818000,6.61081787109375,-1.1992930173873901,-0.23097644746303558,2.497814655303955
1667508279485865000,6.620864990234375,-1.0936601161956787,-0.6282898187637329,2.280276298522949
1667508279495912000,6.630911865234375,-1.1973955631256104,-1.3759177923202515,2.2403814792633057
1667508279505959000,6.640958984375,-1.2677748203277588,-1.8580780029296875,2.2073349952697754
1667508279516007000,6.6510068359375,-1.1908488273620605,-1.788055419921875,2.259260416030884
1667508279526054000,6.661053955078125,-1.0779564380645752,-1.3006913661956787,2.3318588733673096
1667508279536100900,6.671100830078125,-0.9758282899856567,-0.7723085880279541,2.235839366912842
1667508279546147800,6.68114794921875,-0.8836752772331238,-0.5190268754959106,2.073925018310547
1667508279556194800,6.69119482421875,-0.9227270483970642,-0.38337981700897217,2.0275816917419434
1667508279566242000,6.701241943359375,-1.1008445024490356,-0.3182956278324127,1.9656258821487427
1667508279576289000,6.7112890625,-1.2736191749572754,-0.3125000596046448,1.8465110063552856
1667508279586336000,6.7213359375,-1.3322852849960327,-0.3429987132549286,1.6461278200149536
1667508279596383000,6.731383056640625,-1.3283419609069824,-0.39241310954093933,1.4094258546829224
1667508279606429700,6.7414296875,-1.2931225299835205,-0.5148312449455261,1.2017817497253418
1667508279616478000,6.75147802734375,-1.3152856826782227,-0.6901357173919678,1.001283884048462
1667508279626525000,6.76152490234375,-1.3997658491134644,-1.0040130615234375,0.8926882743835449
1667508279636572000,6.771572021484375,-1.4830516576766968,-1.218347191810608,0.7701293230056763
1667508279646619000,6.781618896484375,-1.5618778467178345,-1.3508882522583008,0.6766505837440491
1667508279656665900,6.791665771484375,-1.7089695930480957,-1.4622927904129028,0.7054361701011658
1667508279666713000,6.801713134765625,-1.8883119821548462,-1.4658960103988647,0.7609617710113525
1667508279676760000,6.811760009765625,-2.016310930252075,-1.3654234409332275,0.7316113114356995
1667508279686807000,6.82180712890625,-2.077848196029663,-1.3001302480697632,0.5991104245185852
1667508279696853800,6.831853759765625,-2.1223413944244385,-1.2767977714538574,0.4286484122276306
1667508279706900700,6.841900634765625,-2.1696693897247314,-1.2131505012512207,0.24766655266284943
1667508279716949000,6.851948974609375,-2.231541872024536,-1.1935265064239502,0.05515383556485176
1667508279726996000,6.861995849609375,-2.326446294784546,-1.3419889211654663,-0.1435232013463974
1667508279737043000,6.87204296875,-2.4781200885772705,-1.6006569862365723,-0.32712632417678833
1667508279747090000,6.88208984375,-2.679656982421875,-1.9302788972854614,-0.5134902596473694
1667508279757137000,6.892136962890625,-2.9041011333465576,-2.211726665496826,-0.7409271001815796
1667508279767184000,6.902183837890625,-3.1321818828582764,-2.424055337905884,-0.9737279415130615
1667508279777231000,6.912231201171875,-3.3108129501342773,-2.5117344856262207,-1.1956440210342407
1667508279787277800,6.92227783203125,-3.4382553100585938,-2.4997637271881104,-1.39993417263031
1667508279797324800,6.93232470703125,-3.5664501190185547,-2.469061851501465,-1.5547953844070435
1667508279807372800,6.942372802734375,-3.7231314182281494,-2.35304594039917,-1.7083796262741089
1667508279817420000,6.952419921875,-3.9139599800109863,-2.0956594944000244,-1.9276283979415894
1667508279827467000,6.962467041015625,-4.101263046264648,-1.9215495586395264,-2.141167640686035
1667508279837514000,6.972513916015625,-4.272279262542725,-1.9473017454147339,-2.384115219116211
1667508279847561000,6.98256103515625,-4.447638034820557,-2.110219955444336,-2.664863109588623
1667508279857608000,6.99260791015625,-4.606264591217041,-2.3000473976135254,-2.9251956939697266
1667508279867655000,7.002655029296875,-4.768285274505615,-2.4327690601348877,-3.143573522567749
1667508279877702000,7.012701904296875,-4.974617958068848,-2.4561550617218018,-3.3219797611236572
1667508279887748900,7.022748779296875,-5.185953617095947,-2.397463798522949,-3.4733831882476807
1667508279897795800,7.0327958984375,-5.367602825164795,-2.2596347332000732,-3.575530767440796
1667508279907843800,7.04284375,-5.525713920593262,-2.133155584335327,-3.644090414047241
1667508279917890800,7.052890869140625,-5.7108049392700195,-2.109671115875244,-3.6758077144622803
1667508279927938000,7.06293798828125,-5.949727535247803,-2.2206056118011475,-3.7384254932403564
1667508279937985000,7.072985107421875,-6.207212924957275,-2.518038034439087,-3.7688939571380615
1667508279948032000,7.083031982421875,-6.436685562133789,-2.7318897247314453,-3.7231545448303223
1667508279958079000,7.093078857421875,-6.552789211273193,-2.6185710430145264,-3.6545498371124268
1667508279968125700,7.103125732421875,-6.560983657836914,-2.248911142349243,-3.5573678016662598
1667508279978173000,7.1131728515625,-6.523412704467773,-1.8211761713027954,-3.458744525909424
1667508279988220000,7.123219970703125,-6.486880302429199,-1.6288015842437744,-3.357041358947754
1667508279998268000,7.133267822265625,-6.470435619354248,-1.671047329902649,-3.2231545448303223
1667508280008315000,7.14331494140625,-6.457256317138672,-1.877231240272522,-3.061183452606201
1667508280018361900,7.15336181640625,-6.3931989669799805,-2.191253185272217,-2.930539608001709
1667508280028409000,7.1634091796875,-6.194553852081299,-2.4244275093078613,-2.8547351360321045
1667508280038456000,7.1734560546875,-5.905219554901123,-2.586599588394165,-2.770595073699951
1667508280048503000,7.1835029296875,-5.589478969573975,-2.6127333641052246,-2.653958797454834
1667508280058549800,7.1935498046875,-5.2870683670043945,-2.4709813594818115,-2.5300655364990234
1667508280068596700,7.2035966796875,-4.979836463928223,-2.171851634979248,-2.377371072769165
1667508280078643700,7.213643798828125,-4.676051616668701,-1.8380264043807983,-2.193070888519287
1667508280088691000,7.22369091796875,-4.372594356536865,-1.4350550174713135,-1.99746835231781
1667508280098739000,7.233739013671875,-4.047410011291504,-0.8983757495880127,-1.7842458486557007
1667508280108786000,7.243785888671875,-3.6656956672668457,-0.4567614197731018,-1.5359880924224854
1667508280118833000,7.2538330078125,-3.2588284015655518,-0.12267477810382843,-1.2933093309402466
1667508280128879900,7.2638798828125,-2.894124746322632,0.11893460154533386,-1.0661566257476807
1667508280138927000,7.273927001953125,-2.5609493255615234,0.301791250705719,-0.8538424372673035
1667508280148973800,7.283973876953125,-2.2487802505493164,0.41830122470855713,-0.6762170195579529
1667508280159020800,7.294020751953125,-1.98675537109375,0.4557593762874603,-0.5319485068321228
1667508280169067800,7.30406787109375,-1.8037033081054688,0.38272640109062195,-0.40220439434051514
1667508280179114800,7.31411474609375,-1.636690616607666,0.1927037239074707,-0.3228856325149536
1667508280189163000,7.3241630859375,-1.4297534227371216,-0.027291158214211464,-0.24509277939796448
1667508280199210000,7.3342099609375,-1.1895053386688232,-0.10076510906219482,-0.16173024475574493
1667508280209257000,7.344257080078125,-0.9134753346443176,-0.12440920621156693,-0.10013134777545929
1667508280219304000,7.354303955078125,-0.49955570697784424,0.002303464338183403,-0.1394779533147812
1667508280229351000,7.364350830078125,-0.1809314340353012,0.17144936323165894,-0.22235392034053802
1667508280239398000,7.37439794921875,-0.04215996339917183,-0.15852348506450653,-0.11668633669614792
1667508280249444900,7.38444482421875,0.14893612265586853,-0.2869788110256195,-0.1640494018793106
1667508280259491800,7.394491943359375,0.4534984230995178,-0.2672996520996094,-0.20691058039665222
1667508280269538800,7.404538818359375,0.8657442927360535,-0.12972740828990936,-0.11741665005683899
1667508280279586800,7.4145869140625,1.3332819938659668,0.2298550009727478,-0.0032376227900385857
1667508280289634000,7.424634033203125,1.8102933168411255,0.5939366817474365,0.04499402642250061
1667508280299681000,7.434680908203125,2.3733224868774414,0.7792602181434631,0.013218782842159271
1667508280309728000,7.44472802734375,3.070239782333374,0.9381349086761475,-0.04165797680616379
1667508280319775000,7.45477490234375,3.90925669670105,1.1220802068710327,-0.11002132296562195
1667508280329822000,7.464822021484375,4.874996662139893,1.2634838819503784,-0.2871584892272949
1667508280339868700,7.47486865234375,5.9088311195373535,1.3970376253128052,-0.5940417647361755
1667508280349915600,7.48491552734375,6.991605758666992,1.0506659746170044,-0.7296779155731201
1667508280359963000,7.494962890625,7.524703502655029,-0.34312358498573303,-0.6386678218841553
1667508280370009900,7.505009765625,7.4784979820251465,-2.3447651863098145,-0.5206780433654785
1667508280380057900,7.515057861328125,7.546993255615234,-4.082974910736084,-0.9662765264511108
1667508280390104800,7.525104736328125,7.64243745803833,-5.90307092666626,-1.1603788137435913
1667508280400152000,7.535152099609375,8.134675979614258,-7.316160202026367,-0.8191024661064148
1667508280410199000,7.545198974609375,9.143783569335938,-8.005584716796875,0.12941230833530426
1667508280420245800,7.555245849609375,10.090906143188477,-8.220932960510254,1.1775352954864502
1667508280430292700,7.565292724609375,9.791993141174316,-8.219320297241211,1.047450304031372
1667508280440339700,7.575339599609375,6.561490058898926,-6.221989154815674,1.1719474792480469
1667508280450386700,7.58538671875,4.164610385894775,-6.564650058746338,2.080292224884033
1667508280460435000,7.59543505859375,6.738186836242676,-5.071413516998291,-0.32437899708747864
1667508280470482000,7.60548193359375,8.275647163391113,5.505258083343506,-4.172549724578857
1667508280480529000,7.61552880859375,7.6115522384643555,15.156357765197754,-2.5237081050872803
1667508280490576000,7.625575927734375,3.9051129817962646,13.144793510437012,1.6694153547286987
1667508280500622800,7.635622802734375,-1.9659816026687622,6.175339221954346,1.6010799407958984
1667508280510669800,7.645669921875,-5.222355365753174,1.1411564350128174,0.43566012382507324
1667508280520716800,7.655716796875,-4.855281352996826,-0.9575952291488647,1.0031325817108154
1667508280530763800,7.665763671875,-4.484341144561768,0.6520086526870728,2.555575370788574
1667508280540810800,7.675810791015625,-3.9547436237335205,2.0127134323120117,2.6348965167999268
1667508280550859000,7.68585888671875,-3.287505865097046,-0.015786103904247284,1.307883620262146
1667508280560906000,7.695906005859375,-2.8783810138702393,-3.308366298675537,0.3903966546058655
1667508280570953000,7.705952880859375,-2.9202136993408203,-4.882533073425293,0.41371411085128784
1667508280581000000,7.716,-2.7934601306915283,-5.023339748382568,0.42404747009277344
1667508280591047000,7.726046875,-1.9680231809616089,-4.3991169929504395,0.4293762445449829
1667508280601094000,7.736093994140625,-0.643871545791626,-3.1705756187438965,0.6526756286621094
1667508280611140900,7.746140869140625,0.19701696932315826,-1.7778010368347168,0.8532289266586304
1667508280621187800,7.756187744140625,0.2723093330860138,-0.8039124011993408,0.8119134306907654
1667508280631234800,7.76623486328125,0.2484089881181717,-0.2111070603132248,0.5690783262252808
1667508280641282800,7.77628271484375,0.41119498014450073,0.23881110548973083,0.33916759490966797
1667508280651329800,7.786329833984375,0.6087073683738708,0.6178336143493652,0.27650535106658936
1667508280661377000,7.796376953125,0.6877222657203674,1.2221109867095947,0.3149339556694031
1667508280671424000,7.806424072265625,0.6569764018058777,1.8053443431854248,0.32336166501045227
1667508280681471000,7.816470947265625,0.6820372343063354,1.8438680171966553,0.2721594572067261
1667508280691518000,7.82651806640625,0.7320884466171265,1.44541597366333,0.24724863469600677
1667508280701564700,7.836564697265625,0.642387330532074,0.9704773426055908,0.2694665789604187
1667508280711611600,7.846611572265625,0.3105807900428772,0.45219340920448303,0.32390862703323364
1667508280721659000,7.856658935546875,-0.25360482931137085,0.006178650539368391,0.47196200489997864
1667508280731707000,7.866706787109375,-0.8435564637184143,-0.12855955958366394,0.7585362195968628
1667508280741753900,7.87675390625,-1.3926116228103638,-0.05220594257116318,1.132391333580017
1667508280751800800,7.88680078125,-2.0301671028137207,0.0684424415230751,1.5456526279449463
1667508280761848000,7.89684814453125,-2.6679720878601074,0.2740006744861603,1.9762649536132812
1667508280771895000,7.90689501953125,-3.151864528656006,0.5352712869644165,2.3545496463775635
1667508280781942000,7.91694189453125,-3.484589099884033,0.7203945517539978,2.694613218307495
1667508280791988700,7.92698876953125,-3.692105293273926,0.768008291721344,3.0027577877044678
1667508280802035700,7.93703564453125,-3.7400145530700684,0.8071077466011047,3.2235352993011475
1667508280812084000,7.947083984375,-3.5991694927215576,0.8892409205436707,3.31284499168396
1667508280822131000,7.957130859375,-3.155322790145874,0.8937395215034485,3.205317497253418
1667508280832178000,7.967177978515625,-2.3799097537994385,0.7455481290817261,2.955854892730713
1667508280842225000,7.977224853515625,-1.3562884330749512,0.6138180494308472,2.7682723999023438
1667508280852271900,7.98727197265625,-0.1530829817056656,0.6389378905296326,2.73433518409729
1667508280862318800,7.99731884765625,1.154967188835144,0.9221187233924866,2.8694968223571777
1667508280872365800,8.00736572265625,2.5110952854156494,1.425489068031311,3.062647581100464
1667508280882412800,8.017412841796874,3.9031918048858643,2.0285534858703613,3.190422773361206
1667508280892459800,8.027459716796875,5.370502948760986,2.6235170364379883,3.15149188041687
1667508280902507800,8.0375078125,6.928956985473633,3.063680410385132,3.0883805751800537
1667508280912554800,8.0475546875,8.416075706481934,3.124077081680298,3.183929204940796
1667508280922602000,8.05760205078125,9.45703125,3.03364896774292,3.3604907989501953
1667508280932649000,8.06764892578125,9.953453063964844,2.9763400554656982,3.407824754714966
1667508280942696000,8.077696044921876,10.153658866882324,2.5717952251434326,3.280278444290161
1667508280952743000,8.087742919921874,10.198641777038574,1.4062941074371338,3.0930566787719727
1667508280962790000,8.097789794921875,10.048527717590332,-0.26394781470298767,2.937649965286255
1667508280972836900,8.1078369140625,9.665953636169434,-1.6508876085281372,2.7452850341796875
1667508280982884900,8.117884765625,9.33250904083252,-2.4421157836914062,2.513017177581787
1667508280992931800,8.127931884765625,9.138976097106934,-2.8108222484588623,2.416408061981201
1667508281002978800,8.137978759765625,8.969600677490234,-2.9827916622161865,2.565197706222534
1667508281013025800,8.14802587890625,8.802361488342285,-2.886526107788086,2.768132209777832
1667508281023073000,8.158072998046874,8.612347602844238,-2.5040042400360107,2.866888999938965
1667508281033120000,8.1681201171875,8.410367012023926,-1.8899022340774536,2.9141762256622314
1667508281043167000,8.1781669921875,8.290283203125,-1.1051517724990845,2.948570728302002
1667508281053214000,8.1882138671875,8.225791931152344,-0.33118095993995667,2.946681499481201
1667508281063260700,8.1982607421875,8.149107933044434,0.35283413529396057,2.8639535903930664
1667508281073309000,8.208308837890625,8.04238510131836,0.7727815508842468,2.6594274044036865
1667508281083356000,8.21835595703125,7.8999505043029785,0.8800829648971558,2.3830959796905518
1667508281093403000,8.22840283203125,7.702722549438477,0.8230048418045044,2.0959815979003906
1667508281103449900,8.238449951171875,7.481027603149414,0.7733203768730164,1.8799197673797607
1667508281113496800,8.248496826171875,7.273142337799072,0.7744155526161194,1.7192046642303467
1667508281123543800,8.258543701171876,7.1047043800354,0.7063425183296204,1.5626851320266724
1667508281133591000,8.268591064453124,6.964981555938721,0.6138553619384766,1.3714300394058228
1667508281143638000,8.278637939453125,6.792862892150879,0.4994156062602997,1.1599096059799194
1667508281153685800,8.288685791015626,6.5334062576293945,0.37426626682281494,0.9263085722923279
1667508281163732700,8.298732666015624,6.193899154663086,0.3100587725639343,0.726509153842926
1667508281173780000,8.308780029296875,5.819159507751465,0.38355088233947754,0.599311113357544
1667508281183827000,8.318826904296875,5.464178085327148,0.5706387758255005,0.5272715091705322
1667508281193874000,8.3288740234375,5.127001762390137,0.7545000910758972,0.46626460552215576
1667508281203921000,8.3389208984375,4.79734468460083,0.8377283811569214,0.3919176757335663
1667508281213968000,8.3489677734375,4.438525199890137,0.8037577867507935,0.29802894592285156
1667508281224014800,8.359014892578125,4.027271747589111,0.7199971079826355,0.2008962482213974
1667508281234062800,8.369062744140624,3.5638527870178223,0.6645897626876831,0.1423913985490799
1667508281244109800,8.37910986328125,3.0726189613342285,0.70949786901474,0.12369334697723389
1667508281254156800,8.38915673828125,2.574829578399658,0.8284342288970947,0.1496962457895279
1667508281264203800,8.399203857421876,2.0771543979644775,0.9510000944137573,0.2068234533071518
1667508281274250800,8.409250732421874,1.592970371246338,1.0239020586013794,0.2611883580684662
1667508281284298000,8.419298095703125,1.1504923105239868,1.0082664489746094,0.3025405704975128
1667508281294345000,8.429344970703125,0.7744019031524658,0.9078254103660583,0.32416948676109314
1667508281304392000,8.439391845703126,0.4626261293888092,0.777474045753479,0.3387756049633026
1667508281314439700,8.449439697265625,0.2110590785741806,0.6641619801521301,0.34101244807243347
1667508281324487700,8.45948779296875,-0.0001682050060480833,0.5936710238456726,0.3500189781188965
1667508281334534700,8.46953466796875,-0.17944097518920898,0.5360345244407654,0.35421863198280334
1667508281344581600,8.47958154296875,-0.34692317247390747,0.49853163957595825,0.36571282148361206
1667508281354628600,8.489628662109375,-0.5101422667503357,0.480866402387619,0.3679983615875244
1667508281364675600,8.499675537109376,-0.6665757894515991,0.4623129665851593,0.36739248037338257
1667508281374722800,8.509722900390624,-0.8197894096374512,0.4257044792175293,0.36519625782966614
1667508281384769800,8.519769775390625,-0.9614980816841125,0.3555637300014496,0.3617064356803894
1667508281394817500,8.529817626953125,-1.1102744340896606,0.260827898979187,0.35196009278297424
1667508281404864500,8.539864501953126,-1.2647058963775635,0.17937007546424866,0.3457818031311035
1667508281414911500,8.549911376953125,-1.420464038848877,0.13388273119926453,0.33323365449905396
1667508281424958700,8.559958740234375,-1.5625619888305664,0.09387778490781784,0.3233945965766907
1667508281435005700,8.570005615234376,-1.6756473779678345,0.06223965808749199,0.31259414553642273
1667508281445052700,8.580052734375,-1.7706239223480225,0.03147748485207558,0.30933788418769836
1667508281455099600,8.590099609375,-1.8579319715499878,0.03518449142575264,0.29253140091896057
1667508281465146600,8.600146728515625,-1.9386122226715088,0.0833488181233406,0.26696425676345825
1667508281475194600,8.610194580078126,-2.0008926391601562,0.1600998193025589,0.23587733507156372
1667508281485241600,8.62024169921875,-2.0432488918304443,0.2559911906719208,0.20143413543701172
1667508281495288600,8.63028857421875,-2.064716339111328,0.36849984526634216,0.1847231686115265
1667508281505335600,8.64033544921875,-2.079463481903076,0.5008983612060547,0.18529415130615234
1667508281515382500,8.650382568359374,-2.1010658740997314,0.6210089325904846,0.19476082921028137
1667508281525429800,8.6604296875,-2.1317715644836426,0.7026771903038025,0.19810521602630615
1667508281535476700,8.670476806640625,-2.161853075027466,0.7403873801231384,0.1885719746351242
1667508281545523700,8.680523681640626,-2.1898813247680664,0.7444559335708618,0.1767539381980896
1667508281555571500,8.690571533203125,-2.2054336071014404,0.7320882081985474,0.16044233739376068
1667508281565618400,8.700618408203125,-2.200998306274414,0.699466347694397,0.15280279517173767
1667508281575665700,8.710665771484376,-2.1959757804870605,0.651005744934082,0.15308797359466553
1667508281585712600,8.720712646484374,-2.1991002559661865,0.5961529016494751,0.163566455245018
1667508281595759600,8.730759521484375,-2.2165687084198,0.546919047832489,0.17223051190376282
1667508281605806600,8.740806640625,-2.2340550422668457,0.5006471872329712,0.1837814450263977
1667508281615853600,8.750853515625,-2.224492311477661,0.4752436578273773,0.17456510663032532
1667508281625901800,8.76090185546875,-2.1711387634277344,0.45016786456108093,0.14944137632846832
1667508281635948500,8.770948486328125,-2.094411611557007,0.43451109528541565,0.12346262484788895
1667508281645995500,8.78099560546875,-2.001981496810913,0.44110509753227234,0.1134941428899765
1667508281656042500,8.79104248046875,-1.9107334613800049,0.4676382541656494,0.10741246491670609
1667508281666089500,8.80108935546875,-1.8091700077056885,0.4851469397544861,0.10275379568338394
1667508281676136400,8.811136474609375,-1.6885348558425903,0.4976983368396759,0.08544173836708069
1667508281686183700,8.82118359375,-1.573363184928894,0.5035186409950256,0.05638584867119789
1667508281696230700,8.831230712890624,-1.4703538417816162,0.5254421830177307,0.02054377645254135
1667508281706278700,8.841278564453125,-1.3721543550491333,0.5530485510826111,-0.009184292517602444
1667508281716325600,8.85132568359375,-1.270950436592102,0.5817732810974121,-0.03972361609339714
1667508281726372600,8.86137255859375,-1.1671921014785767,0.6045928597450256,-0.053887903690338135
1667508281736419600,8.871419677734375,-1.0474179983139038,0.6469498872756958,-0.05099532753229141
1667508281746466600,8.881466552734375,-0.9146002531051636,0.7102364301681519,-0.03855755925178528
1667508281756513500,8.891513427734376,-0.7815748453140259,0.7918988466262817,-0.0326412059366703
1667508281766560500,8.901560546875,-0.6735737919807434,0.8668777346611023,-0.036305982619524
1667508281776608800,8.91160888671875,-0.5737788081169128,0.9094326496124268,-0.032446399331092834
1667508281786655700,8.92165576171875,-0.47599977254867554,0.9010593891143799,-0.04512517899274826
1667508281796702700,8.93170263671875,-0.38240090012550354,0.8311957716941833,-0.0705852061510086
1667508281806749700,8.941749755859375,-0.3002149760723114,0.7107343077659607,-0.10841061174869537
1667508281816796400,8.95179638671875,-0.23342353105545044,0.5432525277137756,-0.16024430096149445
1667508281826843400,8.961843505859376,-0.17122992873191833,0.3757575452327728,-0.21408569812774658
1667508281836890600,8.971890625,-0.12356264889240265,0.2365187257528305,-0.24698305130004883
1667508281846938600,8.981938720703125,-0.08828215301036835,0.14806342124938965,-0.27053123712539673
1667508281856985600,8.991985595703126,-0.045544352382421494,0.11394229531288147,-0.29039573669433594
1667508281867032600,9.002032470703124,0.027678996324539185,0.11546854674816132,-0.2991016209125519
1667508281877079800,9.012079833984375,0.1348462551832199,0.14239592850208282,-0.28238818049430847
1667508281887126800,9.022126708984375,0.2675883173942566,0.17972733080387115,-0.260196328163147
1667508281897173800,9.032173828125,0.4027755558490753,0.2146863043308258,-0.2509590685367584
1667508281907220500,9.042220458984374,0.5255254507064819,0.23974505066871643,-0.25803321599960327
1667508281917268500,9.0522685546875,0.6209837794303894,0.23855966329574585,-0.2803153693675995
1667508281927315700,9.062315673828126,0.6900480389595032,0.2194024622440338,-0.30872970819473267
1667508281937362700,9.07236279296875,0.7508304715156555,0.17852245271205902,-0.32646140456199646
1667508281947409700,9.08240966796875,0.8193490505218506,0.14421774446964264,-0.32313936948776245
1667508281957456600,9.09245654296875,0.9164875149726868,0.11744184046983719,-0.3031776249408722
1667508281967503600,9.102503662109376,1.0346673727035522,0.08374166488647461,-0.26147064566612244
1667508281977550600,9.112550537109374,1.137844204902649,0.032180674374103546,-0.2171463668346405
1667508281987598600,9.1225986328125,1.1960891485214233,-0.06035911291837692,-0.18716609477996826
1667508281997645600,9.1326455078125,1.1769230365753174,-0.20279812812805176,-0.1762973964214325
1667508282007692500,9.142692626953124,1.1042165756225586,-0.3584122359752655,-0.17083337903022766
1667508282017739500,9.152739501953125,0.9974209070205688,-0.47175368666648865,-0.16449040174484253
1667508282027786500,9.162786376953125,0.9004669189453125,-0.5208722352981567,-0.14362958073616028
1667508282037833700,9.172833740234376,0.8449509739875793,-0.5098872780799866,-0.0998387411236763
1667508282047880700,9.182880615234374,0.8523535132408142,-0.468343049287796,-0.03821984678506851
1667508282057928400,9.192928466796875,0.9023178815841675,-0.43793192505836487,0.037099920213222504
1667508282067975400,9.202975341796876,0.9632731676101685,-0.42301395535469055,0.09354375302791595
1667508282078022700,9.213022705078124,1.0113264322280884,-0.4255354702472687,0.10653717815876007
1667508282088069600,9.223069580078125,1.0409966707229614,-0.4448561668395996,0.08852462470531464
1667508282098116600,9.23311669921875,1.0602785348892212,-0.466350793838501,0.06163600832223892
1667508282108163600,9.24316357421875,1.06697416305542,-0.4835883677005768,0.024363473057746887
1667508282118210600,9.25321044921875,1.0679728984832764,-0.5161628127098083,-0.00562252476811409
1667508282128258800,9.2632587890625,1.072099208831787,-0.5731544494628906,-0.02625430002808571
1667508282138305800,9.273305908203126,1.0852041244506836,-0.633212685585022,-0.026292355731129646
1667508282148352500,9.2833525390625,1.1015958786010742,-0.6914658546447754,-0.01637713983654976
1667508282158399500,9.2933994140625,1.1167843341827393,-0.7436780333518982,0.0013676108792424202
1667508282168446500,9.303446533203125,1.1273102760314941,-0.7926839590072632,0.020579654723405838
1667508282178493400,9.313493408203126,1.124566674232483,-0.8321955800056458,0.03709525242447853
1667508282188541700,9.323541748046875,1.1022781133651733,-0.8363213539123535,0.055120859295129776
1667508282198588700,9.333588623046875,1.0685216188430786,-0.7959319949150085,0.06830958276987076
1667508282208635600,9.3436357421875,1.0231435298919678,-0.7040182948112488,0.08617832511663437
1667508282218682600,9.3536826171875,0.9689438343048096,-0.5611611604690552,0.09837792068719864
1667508282228729600,9.3637294921875,0.9083901643753052,-0.3841746747493744,0.11438698321580887
1667508282238776600,9.373776611328125,0.8463043570518494,-0.19932542741298676,0.1341220885515213
1667508282248823600,9.383823486328126,0.7840710878372192,-0.038782358169555664,0.1609949916601181
1667508282258871600,9.39387158203125,0.7214866280555725,0.07895934581756592,0.18400371074676514
1667508282268918500,9.40391845703125,0.6580647826194763,0.15089158713817596,0.19900768995285034
1667508282278965800,9.4139658203125,0.5951698422431946,0.16787709295749664,0.20415803790092468
1667508282289012700,9.4240126953125,0.528632640838623,0.1288340836763382,0.20242619514465332
1667508282299059700,9.434059814453125,0.46067920327186584,0.04309329390525818,0.1893806755542755
1667508282309106700,9.444106689453125,0.39466503262519836,-0.06764839589595795,0.16864369809627533
1667508282319154200,9.454154296875,0.32893991470336914,-0.19476570188999176,0.14250539243221283
1667508282329201400,9.464201416015625,0.2700984477996826,-0.32588642835617065,0.11675688624382019
1667508282339248400,9.474248291015625,0.2069592922925949,-0.4633246064186096,0.09034877270460129
1667508282349295400,9.48429541015625,0.14692898094654083,-0.6056516170501709,0.07061395049095154
1667508282359342300,9.49434228515625,0.07657013088464737,-0.7490596771240234,0.07090461254119873
1667508282369389300,9.504389404296875,0.014481459744274616,-0.8550835847854614,0.07934923470020294
1667508282379437600,9.5144375,-0.032054733484983444,-0.906777024269104,0.10296381264925003
1667508282389484300,9.524484375,-0.051920048892498016,-0.9075254201889038,0.12758180499076843
1667508282399531300,9.53453125,-0.057736586779356,-0.8861980438232422,0.14588981866836548
1667508282409578200,9.544578125,-0.05616292357444763,-0.875077486038208,0.1560194194316864
1667508282419625200,9.554625244140626,-0.05132804811000824,-0.8659896850585938,0.159856915473938
1667508282429672200,9.564672119140624,-0.054063379764556885,-0.8514392375946045,0.1688448190689087
1667508282439719400,9.574719482421875,-0.046333327889442444,-0.811519980430603,0.18318665027618408
1667508282449767400,9.584767333984376,-0.040257059037685394,-0.7386148571968079,0.19944071769714355
1667508282459814400,9.594814453125,-0.02031705714762211,-0.6371411085128784,0.20064440369606018
1667508282469861400,9.604861328125,0.005691106431186199,-0.5238281488418579,0.1965002566576004
1667508282479908400,9.614908447265625,0.04555723816156387,-0.4319378137588501,0.16351477801799774
1667508282489955300,9.624955322265626,0.10161811113357544,-0.3612724244594574,0.11660345643758774
1667508282500002300,9.635002197265624,0.19091998040676117,-0.28613612055778503,0.05709541589021683
1667508282510050300,9.64505029296875,0.31287866830825806,-0.1941438615322113,0.00033226609230041504
1667508282520097300,9.65509716796875,0.45057034492492676,-0.0813913643360138,-0.038887783885002136
1667508282530144500,9.66514453125,0.5763940215110779,0.03951960429549217,-0.06418834626674652
1667508282540191500,9.67519140625,0.6767809987068176,0.15304842591285706,-0.08629944175481796
1667508282550238500,9.685238525390625,0.7516294121742249,0.25512367486953735,-0.09776328504085541
1667508282560285400,9.695285400390626,0.8274356126785278,0.34943699836730957,-0.09213075786828995
1667508282570333200,9.705333251953125,0.9169332385063171,0.4378206729888916,-0.07753609865903854
1667508282580380400,9.71538037109375,1.0076229572296143,0.49416592717170715,-0.0579826682806015
1667508282590427400,9.725427490234376,1.0522236824035645,0.5013085007667542,-0.06244666129350662
1667508282600474400,9.735474365234374,1.025846004486084,0.47342199087142944,-0.07061166316270828
1667508282610521300,9.745521240234375,0.8992342948913574,0.4729279577732086,-0.07025027275085449
1667508282620568300,9.755568359375,0.6863864064216614,0.5734599232673645,-0.06358450651168823
1667508282630616300,9.7656162109375,0.4237326681613922,0.8248516321182251,-0.04439296945929527
1667508282640663300,9.775663330078125,0.12798063457012177,1.199652075767517,0.0035344543866813183
1667508282650710300,9.785710205078125,-0.18745268881320953,1.6099570989608765,0.10080428421497345
1667508282660757200,9.79575732421875,-0.5298163890838623,1.9017335176467896,0.23411931097507477
1667508282670804200,9.80580419921875,-0.8832724094390869,1.9669053554534912,0.3816477656364441
1667508282680851500,9.8158515625,-1.232174277305603,1.8283339738845825,0.5463835597038269
1667508282690899500,9.8258994140625,-1.5708348751068115,1.5517066717147827,0.7277376055717468
1667508282700946400,9.835946533203124,-1.8979073762893677,1.1812934875488281,0.895852267742157
1667508282710993400,9.845993408203125,-2.1839468479156494,0.7422181367874146,1.0255818367004395
1667508282721040100,9.8560400390625,-2.373940944671631,0.27386075258255005,1.109718918800354
1667508282731087400,9.86608740234375,-2.465348720550537,-0.17387548089027405,1.1625254154205322
1667508282741134300,9.87613427734375,-2.470412254333496,-0.5139896869659424,1.1907662153244019
1667508282751182300,9.886182373046875,-2.405402660369873,-0.7165459990501404,1.1977208852767944
1667508282761229300,9.896229248046875,-2.3599629402160645,-0.7769351601600647,1.1866202354431152
1667508282771276500,9.906276611328124,-2.398486375808716,-0.7173905968666077,1.182228684425354
1667508282781323500,9.916323486328125,-2.465394973754883,-0.6335219740867615,1.1922649145126343
1667508282791370500,9.92637060546875,-2.5191495418548584,-0.5794579386711121,1.217779278755188
1667508282801417500,9.93641748046875,-2.548842191696167,-0.5957326889038086,1.2548924684524536
1667508282811465200,9.94646533203125,-2.575946807861328,-0.7098632454872131,1.3169763088226318
1667508282821512400,9.956512451171875,-2.6224374771118164,-0.9194856882095337,1.4065595865249634
1667508282831559400,9.966559326171875,-2.6950275897979736,-1.2356715202331543,1.4852572679519653
1667508282841606400,9.9766064453125,-2.8040120601654053,-1.6378214359283447,1.5405699014663696
1667508282851653400,9.9866533203125,-2.9278957843780518,-2.1285769939422607,1.5841666460037231
1667508282861701400,9.996701416015625,-3.0457613468170166,-2.6908013820648193,1.5682493448257446
1667508282871748400,10.006748291015626,-3.122628688812256,-3.3362295627593994,1.4917007684707642
1667508282881795300,10.01679541015625,-3.1494216918945312,-3.9725754261016846,1.3930245637893677
1667508282891842300,10.02684228515625,-3.1066930294036865,-4.4754509925842285,1.2817853689193726
1667508282901889300,10.03688916015625,-3.0093302726745605,-4.750759124755859,1.1815986633300781
1667508282911936300,10.046936279296874,-2.865638494491577,-4.823705196380615,1.1234408617019653
1667508282921984500,10.056984619140625,-2.6854307651519775,-4.7005295753479,1.0955533981323242
1667508282932031500,10.067031494140625,-2.4969520568847656,-4.367988109588623,1.0757085084915161
1667508282942078500,10.077078369140626,-2.3080332279205322,-3.8393146991729736,1.0121312141418457
1667508282952125200,10.087125244140625,-2.112447500228882,-3.264777421951294,0.9038145542144775
1667508282962172200,10.097172119140625,-1.913157343864441,-2.881452798843384,0.8923517465591431
1667508282972220400,10.107220458984376,-1.747353196144104,-2.4792513847351074,1.0878698825836182
1667508282982267400,10.117267333984374,-1.3288707733154297,0.2584965229034424,1.0690840482711792
1667508282992314400,10.127314453125,-0.6617594957351685,1.988461971282959,1.2868491411209106
1667508283002361300,10.137361328125,-0.585669994354248,0.9091216325759888,0.8971496820449829
1667508283012408300,10.147408203125,-0.8648441433906555,0.32427096366882324,0.7940621972084045
1667508283022455600,10.15745556640625,-0.9110099673271179,-0.3060958981513977,0.8023195266723633
1667508283032503300,10.16750341796875,-0.7472056150436401,-0.6526855230331421,0.6768590807914734
1667508283042550300,10.17755029296875,-0.6151284575462341,-0.8087193965911865,0.6361192464828491
1667508283052597200,10.18759716796875,-0.584423303604126,-1.071325659751892,0.6948648691177368
1667508283062644200,10.197644287109375,-0.6226341724395752,-1.3587708473205566,0.7233343720436096
1667508283072691500,10.20769140625,-0.5787562131881714,-1.6235061883926392,0.690349280834198
1667508283082739500,10.217739501953124,-0.44654810428619385,-1.7862540483474731,0.631280243396759
1667508283092786400,10.227786376953125,-0.4095274806022644,-1.948111891746521,0.5850211381912231
1667508283102833200,10.237833251953125,-0.44048401713371277,-2.1513471603393555,0.5330686569213867
1667508283112880400,10.24788037109375,-0.2774050831794739,-1.7775075435638428,0.6228795051574707
1667508283122927400,10.25792724609375,-0.176296666264534,-1.0491176843643188,0.776283860206604
1667508283132974300,10.267974365234375,-0.28561222553253174,-0.5295930504798889,0.9448531866073608
1667508283143022300,10.278022216796876,-0.36588793992996216,-0.3117448389530182,1.0550638437271118
1667508283153069300,10.2880693359375,-0.4508662223815918,-0.566060483455658,1.031365990638733
1667508283163116500,10.298116455078125,-0.6304800510406494,-0.9678953886032104,0.9317305088043213
1667508283173163500,10.30816357421875,-0.731001079082489,-1.197014331817627,0.8100157976150513
1667508283183210500,10.31821044921875,-0.6001595258712769,-1.4498193264007568,0.755614697933197
1667508283193258200,10.32825830078125,-0.4094449579715729,-1.7442752122879028,0.7507078647613525
1667508283203305200,10.33830517578125,-0.34684550762176514,-2.0620055198669434,0.8012157678604126
1667508283213352400,10.3483525390625,-0.4058513045310974,-2.4497427940368652,0.832274317741394
1667508283223399400,10.3583994140625,-0.4838572144508362,-2.898301124572754,0.8277910351753235
1667508283233446400,10.3684462890625,-0.5721032023429871,-3.141773223876953,0.8043120503425598
1667508283243494400,10.378494384765625,-0.6697585582733154,-3.127960681915283,0.7994526624679565
1667508283253541400,10.388541259765624,-0.800245463848114,-2.800100326538086,0.8509553074836731
1667508283263588400,10.39858837890625,-0.8777213096618652,-2.3911168575286865,0.9750692844390869
1667508283273635300,10.40863525390625,-0.8726460933685303,-2.166348457336426,0.9563022255897522
1667508283283682300,10.418682373046876,-0.5217185020446777,-1.8756425380706787,0.8911455869674683
1667508283293729300,10.428729248046874,0.002727677347138524,-1.2879316806793213,0.9974699020385742
1667508283303777500,10.438777587890625,0.34189292788505554,-0.5315895676612854,0.9556822776794434
1667508283313824500,10.448824462890625,0.5513803362846375,-0.18899786472320557,0.8946205377578735
1667508283323870500,10.458870361328126,0.614674985408783,-0.12940892577171326,0.8994975090026855
1667508283333917700,10.468917724609375,0.530551016330719,-0.07530121505260468,0.8851553201675415
1667508283343964700,10.478964599609375,0.4277854561805725,-0.06271424889564514,0.7915821671485901
1667508283354012400,10.489012451171876,0.3974967896938324,-0.034513771533966064,0.6122097373008728
1667508283364059400,10.499059326171874,0.4398037791252136,-0.06574942916631699,0.38756585121154785
1667508283374106400,10.5091064453125,0.4818132817745209,-0.07230187207460403,0.1935202032327652
1667508283384153600,10.519153564453125,0.5380787253379822,0.02056223899126053,0.04788973182439804
1667508283394200600,10.52920068359375,0.5747642517089844,0.15475386381149292,-0.16612109541893005
1667508283404248600,10.53924853515625,0.6505671739578247,0.32512956857681274,-0.41472959518432617
1667508283414295600,10.549295654296875,0.7118302583694458,0.5444403290748596,-0.6680223345756531
1667508283424342500,10.559342529296876,0.729081928730011,0.8144146203994751,-0.8972650766372681
1667508283434389500,10.569389404296874,0.7361521124839783,1.1803146600723267,-1.0786508321762085
1667508283444436500,10.5794365234375,0.7574222683906555,1.401789903640747,-1.27201509475708
1667508283454483500,10.5894833984375,0.8173828125,1.141326665878296,-1.4028286933898926
1667508283464531500,10.599531494140624,0.843285083770752,0.9973472356796265,-1.5370339155197144
1667508283474578700,10.60957861328125,0.8925014138221741,1.1509284973144531,-1.6507197618484497
1667508283484625700,10.619625732421875,1.0686510801315308,1.2493605613708496,-1.7226104736328125
1667508283494672600,10.629672607421876,1.2871037721633911,1.2182306051254272,-1.8738473653793335
1667508283504719600,10.6397197265625,1.4083870649337769,1.3411492109298706,-2.094386100769043
1667508283514767400,10.649767333984375,1.4343677759170532,1.4278202056884766,-2.2397823333740234
1667508283524814600,10.659814697265626,1.4211894273757935,1.5396728515625,-2.2327332496643066
1667508283534861600,10.669861572265624,1.4779661893844604,1.7003059387207031,-2.1636273860931396
1667508283544908500,10.679908447265625,1.6346338987350464,1.9525295495986938,-2.160837411880493
1667508283554955500,10.68995556640625,1.7849714756011963,2.211693525314331,-2.3314669132232666
1667508283565003500,10.70000341796875,1.7843886613845825,2.3894753456115723,-2.564943313598633
1667508283575050500,10.710050537109375,1.6426573991775513,2.464346408843994,-2.695197820663452
1667508283585097500,10.720097412109375,1.4263442754745483,2.4138758182525635,-2.6881227493286133
1667508283595144400,10.73014453125,1.279908537864685,2.308351516723633,-2.5381362438201904
1667508283605191400,10.74019140625,1.2534159421920776,2.259066581726074,-2.3186559677124023
1667508283615238400,10.75023828125,1.3553897142410278,2.235116481781006,-2.156196355819702
1667508283625286700,10.76028662109375,1.4698609113693237,2.228417158126831,-2.044706106185913
1667508283635333600,10.770333740234374,1.5000717639923096,2.269421339035034,-2.0000977516174316
1667508283645380600,10.780380615234375,1.4906383752822876,2.478205919265747,-2.0339319705963135
1667508283655427300,10.79042724609375,1.6270729303359985,2.7752199172973633,-2.021895408630371
1667508283665474300,10.800474365234376,1.6121690273284912,2.1987063884735107,-1.995896816253662
1667508283675522600,10.8105224609375,1.3259285688400269,2.2088663578033447,-1.8566415309906006
1667508283685569500,10.820569580078125,1.2088814973831177,2.296292304992676,-1.7948544025421143
1667508283695616500,10.830616455078125,1.1364941596984863,2.4067859649658203,-1.7009788751602173
1667508283705663500,10.84066357421875,1.0664963722229004,2.3702828884124756,-1.6246833801269531
1667508283715710700,10.850710693359375,1.019454836845398,2.221078872680664,-1.5334001779556274
1667508283725758500,10.860758544921875,1.0443795919418335,2.0692861080169678,-1.3990321159362793
1667508283735805400,10.870805419921876,0.892842173576355,1.5871074199676514,-1.2006980180740356
1667508283745852400,10.880852294921874,0.643075704574585,1.400611162185669,-1.0380516052246094
1667508283755899400,10.8908994140625,0.40975454449653625,1.2278670072555542,-0.9159813523292542
1667508283765946600,10.900946533203125,0.026895824819803238,0.8366926908493042,-0.87812340259552
1667508283775994600,10.91099462890625,-0.22617265582084656,0.8693864345550537,-0.7876259684562683
1667508283786041600,10.92104150390625,-0.3805166482925415,0.9593451023101807,-0.634553074836731
1667508283796088600,10.931088623046875,-0.4199170470237732,0.891483724117279,-0.40957963466644287
1667508283806135300,10.94113525390625,-0.43705499172210693,0.8519344329833984,-0.2251870334148407
1667508283816182500,10.9511826171875,-0.4811026155948639,0.9251633286476135,-0.02253619022667408
1667508283826229500,10.9612294921875,-0.585342288017273,1.1265202760696411,0.174191415309906
1667508283836277500,10.971277587890626,-0.748452365398407,1.3085790872573853,0.3536008596420288
1667508283846324500,10.981324462890624,-0.9515361189842224,1.4227917194366455,0.4552186131477356
1667508283856371700,10.991371826171875,-1.14202880859375,1.4417284727096558,0.5074498653411865
1667508283866418700,11.001418701171875,-1.2333054542541504,1.4912657737731934,0.534160852432251
1667508283876466400,11.011466552734374,-1.308113932609558,1.5709826946258545,0.6653340458869934
1667508283886513400,11.021513427734375,-1.4415286779403687,1.8199458122253418,0.868253231048584
1667508283896560400,11.031560302734375,-1.5925525426864624,2.3049182891845703,1.087026596069336
1667508283906607600,11.041607666015626,-1.7120354175567627,2.689293622970581,1.2737996578216553
1667508283916654600,11.051654541015624,-1.6656357049942017,2.7918078899383545,1.3790919780731201
1667508283926701600,11.06170166015625,-1.3271543979644775,2.78719425201416,1.4965219497680664
1667508283936749600,11.07174951171875,-0.9023197293281555,2.9656686782836914,1.7093216180801392
1667508283946796500,11.081796630859374,-0.6963862776756287,2.7690393924713135,1.9869662523269653
1667508283956843500,11.091843505859375,-0.6418724060058594,2.2763495445251465,2.1977555751800537
1667508283966890500,11.101890380859375,-0.6844205260276794,1.5508818626403809,2.3640785217285156
1667508283976937500,11.1119375,-0.8147047758102417,0.48045408725738525,2.5607075691223145
1667508283986985500,11.1219853515625,-0.8435734510421753,-0.6900774836540222,2.70166015625
1667508283997032700,11.13203271484375,-0.7237905859947205,-1.2051661014556885,2.7609004974365234
1667508284007079700,11.14207958984375,-0.5410187244415283,-1.5118135213851929,2.759437084197998
1667508284017126700,11.152126708984374,-0.37070584297180176,-1.8433566093444824,2.820986747741699
1667508284027173600,11.162173583984375,-0.174729585647583,-1.8617647886276245,2.8188579082489014
1667508284037221400,11.172221435546875,0.03347422927618027,-1.5654324293136597,2.713946580886841
1667508284047268600,11.1822685546875,0.28352996706962585,-1.2612316608428955,2.5575947761535645
1667508284057315600,11.192315673828125,0.5005635023117065,-1.1613847017288208,2.43949031829834
1667508284067362600,11.202362548828125,0.6291956305503845,-1.1161653995513916,2.361372947692871
1667508284077410600,11.21241064453125,0.7105820775032043,-1.122477650642395,2.281365394592285
1667508284087457500,11.22245751953125,0.7756416201591492,-1.2766352891921997,2.1805789470672607
1667508284097504500,11.23250439453125,0.7726271748542786,-1.4352624416351318,2.064894199371338
1667508284107551500,11.242551513671875,0.7121201753616333,-1.4737416505813599,1.9138813018798828
1667508284117598500,11.252598388671874,0.6860702037811279,-1.390120506286621,1.755092740058899
1667508284127645400,11.2626455078125,0.7154632210731506,-1.2703694105148315,1.5812115669250488
1667508284137693400,11.272693359375,0.7657597064971924,-1.1421527862548828,1.3572181463241577
1667508284147740700,11.28274072265625,0.8629561066627502,-1.0788592100143433,1.1035782098770142
1667508284157787600,11.29278759765625,0.8898886442184448,-1.0905814170837402,0.8434116840362549
1667508284167834600,11.302834716796875,0.83824622631073,-1.1577659845352173,0.61489337682724
1667508284177882400,11.31288232421875,0.7816617488861084,-1.159664511680603,0.41019192337989807
1667508284187929600,11.3229296875,0.7234145402908325,-0.9844486713409424,0.14531251788139343
1667508284197976600,11.3329765625,0.7090747952461243,-0.6937087178230286,-0.21431437134742737
1667508284208023600,11.3430234375,0.7143945097923279,-0.3693160116672516,-0.5349751114845276
1667508284218070500,11.353070556640626,0.6836544275283813,0.07947350293397903,-0.8065754771232605
1667508284228118500,11.363118408203125,0.6582574248313904,0.5566022992134094,-0.9608669877052307
1667508284238165500,11.37316552734375,0.6123471856117249,0.6980661749839783,-1.011705756187439
1667508284248212500,11.38321240234375,0.5306585431098938,0.7904093265533447,-1.1144077777862549
1667508284258259500,11.393259521484374,0.3406883180141449,0.8213145136833191,-1.3241854906082153
1667508284268306400,11.403306396484375,0.1111626848578453,0.7854471206665039,-1.5686768293380737
1667508284278354400,11.4133544921875,-0.12756626307964325,0.8687305450439453,-1.8681468963623047
1667508284288401700,11.423401611328124,-0.2992154061794281,1.1720595359802246,-2.259991407394409
1667508284298448600,11.43344873046875,-0.2592850625514984,1.6656547784805298,-2.6660561561584473
1667508284308495600,11.44349560546875,0.017484107986092567,2.2579469680786133,-2.9907422065734863
1667508284318542600,11.45354248046875,0.3453834056854248,2.767286539077759,-3.135925054550171
1667508284328590800,11.4635908203125,0.512490451335907,3.1145565509796143,-3.1563503742218018
1667508284338637800,11.473637939453125,0.4121251702308655,3.194518566131592,-3.179525136947632
1667508284348684800,11.483684814453126,0.188749298453331,3.000046968460083,-3.1887459754943848
1667508284358731800,11.493731689453124,0.01935255154967308,2.7390270233154297,-3.164949655532837
1667508284368778800,11.50377880859375,-0.1511206477880478,2.5471842288970947,-3.074782371520996
1667508284378826800,11.51382666015625,-0.2687985599040985,2.4965500831604004,-2.9542508125305176
1667508284388873700,11.523873779296874,-0.30117687582969666,1.9190747737884521,-2.7572836875915527
1667508284398920700,11.533920654296875,-0.0931837186217308,0.6997212171554565,-2.4728808403015137
1667508284408967700,11.5439677734375,0.19737860560417175,-0.1372985690832138,-2.2679030895233154
1667508284419016000,11.554015869140626,0.5781211256980896,-0.5341662764549255,-2.024477958679199
1667508284429063000,11.56406298828125,0.7417284250259399,-0.3767576813697815,-1.9014569520950317
1667508284439110000,11.57410986328125,0.530494213104248,0.5454590320587158,-1.8156943321228027
1667508284449156900,11.584156982421876,0.3954000174999237,1.435708999633789,-1.648834228515625
1667508284459203800,11.594203857421874,0.752509355545044,1.3762438297271729,-1.164565920829773
1667508284469251800,11.604251953125,0.8733066916465759,1.5040347576141357,-1.2662036418914795
1667508284479298800,11.614298828125,0.5559535026550293,2.1409287452697754,-1.3704967498779297
1667508284489345800,11.624345703125,0.41782546043395996,2.338599920272827,-1.2776800394058228
1667508284499392800,11.634392822265625,0.5145469307899475,2.358142137527466,-1.222895622253418
1667508284509440800,11.644440673828125,0.5962879657745361,2.4376604557037354,-1.195361614227295
1667508284519487700,11.65448779296875,0.5229413509368896,2.5689620971679688,-1.1738189458847046
1667508284529534700,11.66453466796875,0.35773220658302307,2.558542490005493,-1.141668438911438
1667508284539581700,11.674581787109375,0.1935717910528183,2.430001974105835,-1.0878808498382568
1667508284549629700,11.684629638671876,0.06902114301919937,2.2390589714050293,-1.025694727897644
1667508284559677000,11.694677001953124,0.0006005407776683569,2.010420799255371,-0.9487694501876831
1667508284569724000,11.704723876953125,-0.028135554865002632,1.7801837921142578,-0.8547804355621338
1667508284579771000,11.71477099609375,-0.034653641283512115,1.5409208536148071,-0.7438675165176392
1667508284589817900,11.72481787109375,-0.04045094549655914,1.301326036453247,-0.6069093346595764
1667508284599865600,11.734865478515625,-0.06688042730093002,1.0515092611312866,-0.45052316784858704
1667508284609912800,11.744912841796875,-0.11008200794458389,0.7623252272605896,-0.2919268012046814
1667508284619959800,11.754959716796876,-0.18383905291557312,0.42608997225761414,-0.14027097821235657
1667508284630006800,11.7650068359375,-0.2926679849624634,0.06355692446231842,-0.005860804580152035
1667508284640054800,11.7750546875,-0.4263160526752472,-0.3238392770290375,0.10655468702316284
1667508284650101800,11.785101806640625,-0.5565571188926697,-0.7308712005615234,0.2032478153705597
1667508284660148700,11.795148681640624,-0.6415159106254578,-1.1516445875167847,0.2629473805427551
1667508284670195700,11.80519580078125,-0.6239761114120483,-1.5476102828979492,0.26397478580474854
1667508284680243700,11.81524365234375,-0.5068238973617554,-1.8966771364212036,0.18075847625732422
1667508284690290700,11.825290771484376,-0.3026106059551239,-2.213390588760376,0.000980882439762354
1667508284700338000,11.835337890625,-0.019069431349635124,-2.532418727874756,-0.2236413061618805
1667508284710385000,11.845385009765625,0.3061685562133789,-2.899141788482666,-0.34053078293800354
1667508284720432600,11.8554326171875,0.6175330877304077,-3.1974782943725586,-0.22724950313568115
1667508284730479600,11.865479736328124,0.8532482981681824,-3.1374144554138184,0.006396827753633261
1667508284740526600,11.875526611328125,0.9716317057609558,-2.616145133972168,0.15334738790988922
1667508284750573800,11.88557373046875,1.005255103111267,-1.8015512228012085,0.15848544239997864
1667508284760621800,11.895621826171874,1.0579017400741577,-0.9414140582084656,0.14001880586147308
1667508284770668800,11.905668701171875,1.2343571186065674,-0.12043559551239014,0.1903531849384308
1667508284780715800,11.9157158203125,1.4356337785720825,0.5865516066551208,0.29060307145118713
1667508284790762800,11.9257626953125,1.523870587348938,1.0090152025222778,0.3697056770324707
1667508284800810800,11.935810791015625,1.4635769128799438,1.070662021636963,0.3900671601295471
1667508284810857700,11.945857666015625,1.2796036005020142,0.8573189377784729,0.3978325426578522
1667508284820904700,11.95590478515625,1.0409915447235107,0.5376071929931641,0.4333513677120209
1667508284830951700,11.96595166015625,0.8213356137275696,0.22586210072040558,0.5110141038894653
1667508284841000000,11.976,0.6510959267616272,-0.08478711545467377,0.5927633047103882
1667508284851047000,11.986046875,0.5293676853179932,-0.4282403588294983,0.6604821681976318
1667508284861093600,11.99609375,0.428476482629776,-0.764701247215271,0.7116670608520508
1667508284871140600,12.006140625,0.3307432532310486,-1.0276092290878296,0.755370020866394
1667508284881187600,12.0161875,0.2521035671234131,-1.1972839832305908,0.7937147617340088
1667508284891235800,12.02623583984375,0.20184853672981262,-1.2769001722335815,0.8208190202713013
1667508284901282800,12.03628271484375,0.16423964500427246,-1.279089331626892,0.8348677158355713
1667508284911329800,12.046329833984375,0.12697842717170715,-1.2396870851516724,0.8472312688827515
1667508284921376800,12.056376708984375,0.07880956679582596,-1.1906980276107788,0.8504003882408142
1667508284931424800,12.0664248046875,0.031248686835169792,-1.1460373401641846,0.8511693477630615
1667508284941471700,12.0764716796875,-0.008310705423355103,-1.105216383934021,0.8320082426071167
1667508284951518700,12.086518798828125,-0.043612848967313766,-1.0678660869598389,0.7939302325248718
1667508284961565700,12.096565673828126,-0.07297872751951218,-1.0239993333816528,0.7372277975082397
1667508284971614000,12.106614013671875,-0.09485577791929245,-0.968032956123352,0.6661233901977539
1667508284981661000,12.116660888671875,-0.1078605204820633,-0.918114423751831,0.5922779440879822
1667508284991708000,12.1267080078125,-0.12598055601119995,-0.9026002883911133,0.525745153427124
1667508285001755000,12.1367548828125,-0.1525125652551651,-0.8956009745597839,0.45149967074394226
1667508285011802600,12.146802734375,-0.1752677857875824,-0.8823436498641968,0.3614085912704468
1667508285021849900,12.156849853515626,-0.2003515660762787,-0.8243250846862793,0.2449813038110733
1667508285031896800,12.166896728515624,-0.23409385979175568,-0.7193607687950134,0.1056603416800499
1667508285041943800,12.17694384765625,-0.26805076003074646,-0.5841153264045715,-0.03866621106863022
1667508285051991800,12.18699169921875,-0.3167310357093811,-0.436229407787323,-0.18148046731948853
1667508285062038800,12.197038818359376,-0.38574713468551636,-0.30003827810287476,-0.30184897780418396
1667508285072085800,12.207085693359375,-0.48553818464279175,-0.1975925713777542,-0.4088051915168762
1667508285082132700,12.2171328125,-0.6028927564620972,-0.1367955356836319,-0.5108335018157959
1667508285092180700,12.2271806640625,-0.7372564673423767,-0.09274865686893463,-0.6185001730918884
1667508285102227700,12.237227783203124,-0.8915514945983887,-0.05368700996041298,-0.7197612524032593
1667508285112275000,12.24727490234375,-1.047461748123169,-0.05526398494839668,-0.8350540399551392
1667508285122322000,12.257322021484375,-1.1807515621185303,-0.07766810059547424,-0.9732665419578552
1667508285132369700,12.26736962890625,-1.2533395290374756,-0.13622479140758514,-1.1104427576065063
1667508285142416600,12.277416748046875,-1.2130722999572754,-0.254533588886261,-1.2149425745010376
1667508285152463600,12.287463623046875,-1.002063512802124,-0.5398642420768738,-1.2975155115127563
1667508285162510800,12.2975107421875,-0.5773671269416809,-0.9979133009910583,-1.2915953397750854
1667508285172558800,12.307558837890625,-0.06452419608831406,-1.3458760976791382,-1.1296852827072144
1667508285182605800,12.317605712890625,0.3287796676158905,-1.0237135887145996,-0.9652031660079956
1667508285192652800,12.32765283203125,0.45152831077575684,-0.022380264475941658,-0.9407615065574646
1667508285202699800,12.33769970703125,0.5296670794487,1.0860036611557007,-1.0306123495101929
1667508285212747800,12.347747802734375,0.7040598392486572,1.9115818738937378,-1.1634858846664429
1667508285222794800,12.357794677734375,0.868155837059021,2.4268925189971924,-1.21407949924469
1667508285232841700,12.367841796875,0.9066120386123657,2.676741600036621,-1.1526542901992798
1667508285242888700,12.377888671875,0.8149564266204834,2.667428970336914,-1.0089930295944214
1667508285252937000,12.38793701171875,0.6410117745399475,2.3953466415405273,-0.8346563577651978
1667508285262983700,12.397983642578126,0.45679324865341187,1.9326701164245605,-0.6628768444061279
1667508285273030700,12.40803076171875,0.32287588715553284,1.4159820079803467,-0.5343614816665649
1667508285283078700,12.41807861328125,0.2696147859096527,0.9675368666648865,-0.489448606967926
1667508285293126000,12.4281259765625,0.29160311818122864,0.5890942811965942,-0.5211607813835144
1667508285303172900,12.4381728515625,0.3989412784576416,0.2437158226966858,-0.5967003107070923
1667508285313219800,12.4482197265625,0.5681577920913696,-0.0626361295580864,-0.6887620091438293
1667508285323268000,12.45826806640625,0.777795135974884,-0.2654065489768982,-0.7686773538589478
1667508285333315000,12.468315185546874,1.008772373199463,-0.29765546321868896,-0.8118296265602112
1667508285343362000,12.478362060546875,1.224171757698059,-0.08803670853376389,-0.8269920945167542
1667508285353409000,12.488408935546875,1.4019001722335815,0.3469941020011902,-0.8433337211608887
1667508285363457300,12.498457275390624,1.5230153799057007,0.9183271527290344,-0.8872222900390625
1667508285373504300,12.508504150390625,1.597827434539795,1.4573556184768677,-0.9485533833503723
1667508285383551200,12.51855126953125,1.6738712787628174,1.8522778749465942,-1.0129523277282715
1667508285393598000,12.528597900390626,1.7510855197906494,2.0537123680114746,-1.0595823526382446
1667508285403646000,12.53864599609375,1.815230131149292,2.0658435821533203,-1.0793914794921875
1667508285413693200,12.548693115234375,1.8499772548675537,1.9322128295898438,-1.081729769706726
1667508285423740200,12.558740234375,1.828067660331726,1.7169654369354248,-1.0780447721481323
1667508285433787100,12.568787109375,1.7457596063613892,1.4759418964385986,-1.0686321258544922
1667508285443835100,12.578835205078125,1.6296449899673462,1.2493577003479004,-1.074556827545166
1667508285453882000,12.588882080078125,1.485120177268982,1.0851049423217773,-1.1017813682556152
1667508285463929000,12.59892919921875,1.3198763132095337,1.0222426652908325,-1.1409951448440552
1667508285473976000,12.60897607421875,1.1818041801452637,1.0739668607711792,-1.188958764076233
